Timestamp,Sensor,AccX,AccY,AccZ,GyrX,GyrY,GyrZ,MagX,MagY,MagZ,Temp
2026/04/13 14:56:30.00,IMU,68.36,-13.18,1007.81,-2.44,-0.43,-4.02,18.60,9.45,61.95,29.9
2026/04/13 14:56:30.10,IMU,51.76,-17.09,1227.05,1.00,-7.21,0.52,18.30,7.95,61.65,30.0
2026/04/13 14:56:30.20,IMU,21.48,-17.58,1016.60,-0.42,-0.94,-0.08,19.50,8.10,63.60,29.9
2026/04/13 14:56:30.30,IMU,48.83,-20.02,981.45,0.30,0.60,-0.59,19.20,8.10,63.60,29.9
2026/04/13 14:56:30.40,IMU,43.46,-15.14,995.12,0.46,2.54,-2.41,17.70,7.65,62.55,29.8
2026/04/13 14:56:30.50,IMU,55.66,-11.72,1005.37,-0.56,1.37,-1.99,19.80,9.00,62.25,29.9
2026/04/13 14:56:30.60,IMU,17.58,-21.48,993.16,-1.18,0.18,0.08,20.10,8.25,62.25,30.0
2026/04/13 14:56:30.70,IMU,35.64,-17.09,980.47,-3.97,-2.25,0.47,19.35,8.70,61.20,29.8
2026/04/13 14:56:30.80,IMU,13.18,-7.81,985.35,-1.66,1.40,-1.05,20.55,9.00,61.95,29.8
2026/04/13 14:56:30.90,IMU,40.53,-3.42,1014.16,-0.37,1.72,-1.63,17.70,8.10,60.30,29.9
2026/04/13 14:56:31.00,IMU,32.23,-5.86,993.16,-0.23,-1.92,0.15,19.50,8.55,61.35,29.9
2026/04/13 14:56:31.10,IMU,35.64,-19.53,993.16,-2.02,1.37,-0.53,19.95,9.60,61.35,29.8
2026/04/13 14:56:31.21,IMU,29.79,-27.34,1011.23,-3.67,-0.89,-0.95,20.25,8.85,61.80,29.9
2026/04/13 14:56:31.31,IMU,26.37,-15.14,1016.60,-2.95,2.28,-1.79,20.10,9.90,62.25,30.0
2026/04/13 14:56:31.41,IMU,13.18,-15.14,994.14,-2.69,0.65,1.25,21.60,9.45,60.15,29.9
2026/04/13 14:56:31.51,IMU,21.00,-2.93,1007.81,-0.44,1.00,-0.83,19.50,8.55,62.85,29.8
2026/04/13 14:56:31.61,IMU,13.18,-7.81,1021.00,-2.37,-0.21,0.02,19.95,8.85,60.60,29.9
2026/04/13 14:56:31.71,IMU,17.58,-7.32,1006.35,-3.35,-3.17,-2.21,19.20,7.65,60.60,29.9
2026/04/13 14:56:31.81,IMU,22.46,-8.30,1010.25,0.46,-0.50,-0.70,20.10,6.75,62.25,29.9
2026/04/13 14:56:31.91,IMU,4.39,-8.30,1000.00,-0.40,-1.03,-0.79,21.45,8.55,61.35,29.6
2026/04/13 14:56:32.01,IMU,26.37,-15.14,974.12,-4.56,0.79,-1.51,19.50,8.85,61.35,29.9
2026/04/13 14:56:32.11,IMU,-36.62,24.90,997.56,6.81,-1.02,-1.37,19.95,8.85,61.35,30.3
2026/04/13 14:56:32.21,IMU,49.32,-27.34,1003.42,-4.66,1.17,-3.94,21.00,8.85,61.35,29.9
2026/04/13 14:56:32.31,IMU,16.60,-19.53,1000.98,-4.82,-1.36,-1.55,19.35,8.70,61.65,30.0
2026/04/13 14:56:32.41,IMU,26.86,-4.39,1004.39,0.60,-0.61,0.66,19.50,9.60,61.80,30.0
2026/04/13 14:56:32.51,IMU,29.30,-21.48,995.12,3.60,0.77,4.03,19.80,9.00,61.20,30.1
2026/04/13 14:56:32.61,IMU,17.58,-5.37,1010.25,-0.78,0.41,-0.52,18.45,10.05,62.55,29.8
2026/04/13 14:56:32.71,IMU,8.30,-8.79,1004.88,-0.95,0.70,-0.92,19.95,8.10,60.60,29.9
2026/04/13 14:56:32.81,IMU,30.27,-17.09,1004.39,-1.61,0.30,-0.73,21.00,10.50,60.30,30.0
2026/04/13 14:56:32.91,IMU,41.02,-5.86,1016.60,-1.34,1.08,3.52,20.25,9.30,61.35,29.8
2026/04/13 14:56:33.01,IMU,23.44,-8.30,1008.79,-2.96,-1.15,-0.43,20.70,7.65,62.55,30.1
2026/04/13 14:56:33.11,IMU,28.32,-21.00,993.16,-2.31,-0.80,-0.07,20.55,9.00,60.90,30.0
2026/04/13 14:56:33.21,IMU,12.21,-24.90,1000.00,-3.06,0.00,-1.42,20.10,8.25,62.25,29.9
2026/04/13 14:56:33.31,IMU,31.74,-29.30,1001.95,-0.85,0.72,-1.72,20.70,8.55,60.30,29.6
2026/04/13 14:56:33.41,IMU,11.72,-17.58,1030.27,-0.05,-0.45,0.04,21.60,8.25,61.20,29.8
2026/04/13 14:56:33.51,IMU,4.88,-23.44,1010.74,-1.34,0.54,-2.94,18.60,8.70,59.70,30.1
2026/04/13 14:56:33.61,IMU,27.34,-10.74,1006.35,-0.37,-3.40,-1.47,19.20,6.90,61.35,29.9
2026/04/13 14:56:33.71,IMU,10.25,-21.48,1007.32,-0.62,-2.92,-2.07,20.85,9.00,59.70,29.8
2026/04/13 14:56:33.81,IMU,38.57,-15.63,1008.30,-1.23,-2.45,-0.19,20.70,7.65,60.30,29.9
2026/04/13 14:56:33.91,IMU,21.97,-18.55,1015.14,-1.43,-0.69,0.31,20.85,9.90,61.65,29.9
2026/04/13 14:56:34.01,IMU,34.67,-37.11,993.16,-3.68,-1.31,-0.73,20.70,8.85,60.30,30.0
2026/04/13 14:56:34.11,IMU,20.02,-16.11,1002.44,-1.66,-3.85,-0.76,19.95,8.55,61.35,29.9
2026/04/13 14:56:34.22,IMU,18.07,-25.88,1000.49,-1.54,-2.34,-3.21,20.55,7.50,61.20,30.0
2026/04/13 14:56:34.32,IMU,16.60,-16.11,1007.32,-1.95,-0.06,-0.02,19.35,9.00,60.90,30.1
2026/04/13 14:56:34.42,IMU,26.86,-10.25,1004.39,0.88,-0.13,-0.21,21.30,7.50,61.20,30.2
2026/04/13 14:56:34.52,IMU,21.48,-5.86,1011.72,-0.85,-2.06,-0.64,20.85,8.70,61.65,29.9
2026/04/13 14:56:34.62,IMU,13.18,-21.00,1007.32,-1.05,0.01,-0.77,19.50,9.30,61.80,30.3
2026/04/13 14:56:34.72,IMU,13.67,-11.72,1008.30,-1.11,-1.30,-1.50,21.30,8.70,61.65,29.7
2026/04/13 14:56:34.82,IMU,34.18,-22.95,995.61,-1.01,-0.52,-0.83,21.30,8.25,60.45,29.8
2026/04/13 14:56:34.92,IMU,33.69,-25.88,1000.98,-1.13,-1.30,-2.51,20.55,8.25,60.15,29.9
2026/04/13 14:56:35.02,IMU,11.72,-14.16,997.56,-0.11,-0.96,1.43,20.55,8.70,61.20,30.1
2026/04/13 14:56:35.12,IMU,8.79,-13.18,1007.81,-2.62,0.04,-1.29,20.70,8.55,59.85,29.8
2026/04/13 14:56:35.22,IMU,6.84,-5.86,1012.21,-1.06,-2.76,-4.52,20.25,8.85,60.30,30.1
2026/04/13 14:56:35.32,IMU,14.65,-27.83,1003.42,-1.43,1.18,0.29,19.50,9.30,61.35,30.1
2026/04/13 14:56:35.42,IMU,19.53,-11.23,1003.42,-1.24,0.51,-1.57,19.50,8.55,60.60,30.1
2026/04/13 14:56:35.52,IMU,24.41,-26.37,998.54,-2.47,0.34,-0.08,20.10,7.95,60.90,29.7
2026/04/13 14:56:35.62,IMU,24.41,-24.41,1003.42,-0.20,-1.80,2.17,21.30,7.50,59.70,30.1
2026/04/13 14:56:35.72,IMU,4.88,-29.79,1020.02,-1.01,1.27,0.87,19.20,8.85,61.80,30.0
2026/04/13 14:56:35.82,IMU,8.79,-26.37,1017.58,1.24,0.17,-2.70,19.05,7.50,60.90,29.9
2026/04/13 14:56:35.92,IMU,8.30,-12.70,1014.16,-1.61,-2.20,1.96,20.70,8.85,59.55,30.1
2026/04/13 14:56:36.02,IMU,17.09,-18.55,985.35,-0.33,0.11,-1.21,20.85,7.05,60.15,29.9
2026/04/13 14:56:36.12,IMU,24.90,-20.02,996.58,-2.11,-0.70,-2.46,19.20,6.60,64.35,29.9
2026/04/13 14:56:36.22,IMU,11.72,-7.81,999.02,-0.17,-1.24,-0.55,20.85,9.00,61.65,29.9
2026/04/13 14:56:36.32,IMU,11.23,-21.48,1000.98,-0.61,2.08,-1.60,20.55,8.25,59.70,30.1
2026/04/13 14:56:36.42,IMU,11.72,-21.97,1006.35,-2.58,-1.01,-1.15,19.80,8.25,61.20,29.8
2026/04/13 14:56:36.52,IMU,11.23,-22.46,986.82,-0.73,2.24,-2.43,22.80,8.25,60.15,30.3
2026/04/13 14:56:36.62,IMU,8.79,-22.95,1021.97,-4.31,-0.01,-2.55,19.50,8.10,61.05,29.8
2026/04/13 14:56:36.72,IMU,31.25,-23.93,1010.25,-0.98,-0.30,-0.04,20.85,8.25,61.65,29.9
2026/04/13 14:56:36.82,IMU,13.18,-20.51,1005.86,0.22,-2.66,-3.31,19.95,7.65,60.30,30.1
2026/04/13 14:56:36.92,IMU,15.63,-11.23,995.12,-1.64,-2.55,-2.90,21.00,8.55,61.35,30.1
2026/04/13 14:56:37.03,IMU,21.97,-16.11,999.02,-1.84,-1.11,0.78,20.85,8.25,62.70,30.1
2026/04/13 14:56:37.13,IMU,-4.39,-21.97,1002.93,-2.14,-0.30,-2.68,17.70,6.90,64.05,30.2
2026/04/13 14:56:37.23,IMU,18.55,-21.48,988.77,-0.56,-2.13,-2.09,21.00,7.65,61.05,29.8
2026/04/13 14:56:37.33,IMU,17.58,-10.74,990.23,0.90,-1.17,1.26,20.70,8.85,61.35,29.8
2026/04/13 14:56:37.43,IMU,12.21,-0.98,1000.98,-0.92,0.55,0.20,19.95,8.10,60.60,30.1
2026/04/13 14:56:37.53,IMU,15.14,-13.18,1003.91,-3.27,0.96,-3.18,19.80,9.00,61.65,29.9
2026/04/13 14:56:37.63,IMU,9.28,-21.48,1007.32,-2.69,-1.27,1.88,21.60,9.45,60.90,29.8
2026/04/13 14:56:37.73,IMU,-3.42,-9.77,997.07,-0.55,-1.55,-0.53,21.60,7.95,61.65,29.6
2026/04/13 14:56:37.83,IMU,14.16,-9.28,998.05,-0.60,-3.02,0.16,20.70,8.55,61.80,30.0
2026/04/13 14:56:37.93,IMU,11.23,-18.07,1008.30,-0.92,0.21,0.21,19.80,10.65,61.65,30.3
2026/04/13 14:56:38.03,IMU,21.00,-13.67,999.02,-3.49,-3.66,1.12,21.45,8.85,59.55,29.9
2026/04/13 14:56:38.13,IMU,-0.49,-14.65,1010.74,-1.08,0.53,-1.82,16.20,6.60,66.15,30.2
2026/04/13 14:56:38.23,IMU,3.42,-6.35,1000.00,0.17,-0.85,0.17,21.00,7.65,61.05,30.1
2026/04/13 14:56:38.34,IMU,7.81,-13.18,1011.23,-1.72,0.35,-2.08,21.30,9.45,61.20,30.2
2026/04/13 14:56:38.44,IMU,22.46,-15.63,1009.77,-2.43,-1.05,-3.11,21.30,10.20,60.45,29.7
2026/04/13 14:56:38.54,IMU,-2.44,1.46,1004.39,-0.15,2.78,-0.95,22.05,8.70,62.25,30.0
2026/04/13 14:56:38.64,IMU,22.95,-27.34,1023.93,0.86,-2.50,-0.17,22.05,8.70,60.90,30.0
2026/04/13 14:56:38.74,IMU,0.98,-2.44,1017.58,-1.91,-1.78,-2.22,22.35,10.20,61.65,29.7
2026/04/13 14:56:38.84,IMU,-14.16,-11.23,1016.11,-0.74,2.87,2.53,20.10,9.45,61.20,29.8
2026/04/13 14:56:38.94,IMU,16.60,0.00,1002.44,-0.19,-0.81,-0.89,21.30,8.70,60.45,30.1
2026/04/13 14:56:39.04,IMU,2.44,-15.14,1031.25,-4.11,-0.77,0.48,21.45,9.60,60.60,30.1
2026/04/13 14:56:39.14,IMU,9.77,-8.30,1012.70,-2.64,-2.41,-0.18,20.85,9.90,60.15,30.1
2026/04/13 14:56:39.24,IMU,-9.28,-13.18,1006.35,-0.05,0.11,3.40,21.45,9.30,62.55,29.9
2026/04/13 14:56:39.34,IMU,10.74,-14.65,990.72,-2.49,-3.25,3.14,20.85,9.90,61.95,30.1
2026/04/13 14:56:39.44,IMU,-5.37,-20.51,1003.42,-0.20,-0.70,-1.95,22.05,9.00,61.65,30.1
2026/04/13 14:56:39.54,IMU,6.35,2.44,1003.91,-0.80,-2.99,0.91,20.70,9.60,61.35,29.9
2026/04/13 14:56:39.64,IMU,1.46,-14.65,1009.77,-2.85,-1.70,-0.97,20.85,8.25,60.90,29.9
2026/04/13 14:56:39.74,IMU,11.23,-33.69,989.26,-1.01,-0.56,-1.01,20.25,8.10,61.05,30.0
2026/04/13 14:56:39.84,IMU,17.09,-8.30,1001.46,0.02,-3.46,0.24,22.05,10.95,60.90,30.0
2026/04/13 14:56:39.94,IMU,-1.46,-28.32,1008.30,-0.88,0.09,-0.44,20.25,8.10,61.05,30.0
2026/04/13 14:56:40.04,IMU,10.74,0.98,995.61,0.49,0.53,3.46,20.85,10.95,61.95,29.9
2026/04/13 14:56:40.14,IMU,14.65,-20.51,1002.44,-1.07,-0.49,-0.15,20.85,7.95,59.70,30.1
2026/04/13 14:56:40.24,IMU,9.28,-8.30,1009.77,-0.78,0.54,1.27,20.10,9.00,61.20,29.7
2026/04/13 14:56:40.34,IMU,11.72,-4.39,989.26,-1.53,-2.53,0.11,21.75,9.60,60.30,29.9
2026/04/13 14:56:40.44,IMU,24.41,-3.91,1007.32,0.16,-0.85,-1.86,20.10,9.00,61.20,30.2
2026/04/13 14:56:40.54,IMU,22.95,0.49,1003.42,3.40,-2.63,0.16,20.25,8.85,59.85,29.9
2026/04/13 14:56:40.64,IMU,77.64,31.25,991.21,1.47,-0.86,-3.83,19.20,10.80,60.60,30.1
2026/04/13 14:56:40.74,IMU,5.37,-9.77,992.19,0.79,1.54,0.02,19.80,10.20,62.70,29.6
2026/04/13 14:56:40.84,IMU,46.88,-14.16,1023.93,-17.26,-0.66,-2.83,19.20,10.50,60.30,30.3
2026/04/13 14:56:40.94,IMU,144.04,-48.83,974.61,0.14,-14.73,-17.96,20.85,7.50,59.40,30.2
2026/04/13 14:56:41.04,IMU,-34.67,-155.76,975.10,-16.57,123.92,-2.63,24.90,7.35,62.85,29.8
2026/04/13 14:56:41.14,IMU,-366.70,-109.86,737.30,-1.13,213.78,7.78,38.10,6.60,55.05,30.1
2026/04/13 14:56:41.25,IMU,-741.21,-151.86,601.07,60.63,250.13,-62.79,53.70,3.30,37.20,29.8
2026/04/13 14:56:41.35,IMU,-679.69,-125.98,1688.48,4.79,208.85,11.08,62.40,1.65,4.95,30.1
2026/04/13 14:56:41.45,IMU,-1230.96,-102.05,53.22,-5.93,116.82,-27.22,58.95,0.90,-8.70,29.8
2026/04/13 14:56:41.55,IMU,-894.04,-95.70,-133.30,3.26,95.85,3.85,50.85,-1.05,-21.75,30.0
2026/04/13 14:56:41.65,IMU,-935.55,-27.34,-316.89,-26.19,179.13,-0.01,45.60,0.00,-32.85,29.7
2026/04/13 14:56:41.75,IMU,-689.45,-69.34,-411.62,-8.08,76.59,-0.24,32.40,1.05,-45.45,29.7
2026/04/13 14:56:41.85,IMU,-550.29,-91.31,-845.21,4.14,72.77,-7.72,25.80,0.45,-50.10,29.8
2026/04/13 14:56:41.95,IMU,-476.56,4.39,-891.11,30.26,123.15,21.98,8.25,0.75,-54.75,29.9
2026/04/13 14:56:42.05,IMU,-221.19,-119.14,-1046.88,3.05,49.23,-20.81,-4.20,0.90,-56.10,30.1
2026/04/13 14:56:42.15,IMU,-168.46,-148.44,-1060.06,-4.68,41.11,-28.31,-8.25,1.05,-54.75,30.1
2026/04/13 14:56:42.25,IMU,-199.71,-190.43,-609.86,-0.52,28.07,-36.20,-12.60,0.90,-51.90,29.9
2026/04/13 14:56:42.35,IMU,-283.69,-95.70,-925.78,3.89,20.63,-5.79,-12.45,1.05,-51.45,30.0
2026/04/13 14:56:42.45,IMU,52.25,-191.89,-1121.58,-25.76,-58.02,-0.83,-12.90,2.40,-49.80,30.1
2026/04/13 14:56:42.55,IMU,-139.65,-84.96,-988.28,-5.22,2.39,7.71,-10.80,2.70,-50.25,29.8
2026/04/13 14:56:42.65,IMU,-207.52,-58.59,-1109.38,2.00,4.31,-2.79,-9.00,2.25,-47.70,29.8
2026/04/13 14:56:42.75,IMU,-122.07,-152.34,-1000.49,-4.56,-7.60,-0.15,-10.50,2.25,-48.75,29.9
2026/04/13 14:56:42.85,IMU,-94.73,-87.89,-897.95,-12.28,-6.21,-9.52,-9.75,3.00,-48.45,29.8
2026/04/13 14:56:42.95,IMU,-212.40,-68.85,-957.03,-7.56,-1.56,-4.58,-8.85,2.40,-47.85,30.0
2026/04/13 14:56:43.05,IMU,-60.06,-93.75,-1007.81,-8.66,1.61,-3.31,-8.25,3.75,-47.70,29.9
2026/04/13 14:56:43.15,IMU,-140.14,-79.59,-998.54,-15.82,-0.76,-0.40,-8.55,4.95,-47.70,29.9
2026/04/13 14:56:43.25,IMU,-80.08,-62.50,-1028.81,0.82,2.43,-0.61,-10.50,4.95,-49.50,30.0
2026/04/13 14:56:43.35,IMU,-79.10,-52.73,-913.09,0.27,1.37,-5.50,-10.50,4.20,-48.00,29.9
2026/04/13 14:56:43.45,IMU,-134.77,-58.59,-952.15,7.71,33.56,-1.62,-11.10,3.30,-48.30,29.9
2026/04/13 14:56:43.55,IMU,-79.59,-79.59,-1019.53,0.67,9.34,-0.68,-12.75,4.65,-49.20,29.9
2026/04/13 14:56:43.65,IMU,-29.79,-54.20,-974.61,-4.06,-0.67,-1.93,-13.35,4.80,-48.30,29.7
2026/04/13 14:56:43.75,IMU,-67.87,-58.11,-1004.88,-0.92,-2.73,0.18,-14.10,4.35,-49.05,29.9
2026/04/13 14:56:43.85,IMU,-89.36,-41.02,-1004.39,-2.77,-3.74,-1.09,-14.70,3.45,-48.45,29.9
2026/04/13 14:56:43.95,IMU,-65.92,-66.89,-979.49,0.90,-2.88,-1.43,-13.35,4.80,-49.35,29.9
2026/04/13 14:56:44.05,IMU,-54.69,-48.34,-1011.72,0.37,-0.95,-1.40,-13.50,3.75,-48.75,29.9
2026/04/13 14:56:44.15,IMU,-55.18,-59.57,-988.28,-2.31,1.13,0.97,-13.20,4.65,-47.70,29.8
2026/04/13 14:56:44.26,IMU,-83.01,-50.78,-1093.26,1.53,6.79,1.98,-14.70,3.75,-47.70,29.6
2026/04/13 14:56:44.36,IMU,-64.45,-43.46,-1009.77,-2.51,-4.86,-2.05,-14.25,3.75,-48.00,30.1
2026/04/13 14:56:44.46,IMU,-41.02,-41.99,-1000.98,-3.97,2.01,-1.37,-14.85,3.30,-49.05,29.8
2026/04/13 14:56:44.56,IMU,-62.01,-50.29,-1004.88,-3.20,-2.51,-3.60,-14.10,4.80,-48.30,29.9
2026/04/13 14:56:44.66,IMU,-73.73,-50.29,-994.14,-2.95,7.26,-0.58,-13.35,4.80,-47.10,29.9
2026/04/13 14:56:44.76,IMU,-65.92,-46.88,-1000.98,-0.97,3.88,1.21,-14.25,3.75,-47.70,29.8
2026/04/13 14:56:44.86,IMU,-36.62,-22.95,-1022.95,-1.78,0.67,-0.18,-14.40,5.55,-46.05,30.0
2026/04/13 14:56:44.96,IMU,99.12,-28.81,-1522.95,16.51,-13.45,-3.72,-13.50,5.40,-48.45,29.9
2026/04/13 14:56:45.06,IMU,-36.62,4.39,-947.27,-1.76,0.81,4.24,-13.35,4.05,-49.35,30.1
2026/04/13 14:56:45.16,IMU,-12.70,-55.18,-1004.88,-3.64,-1.28,-1.07,-13.20,3.75,-50.25,29.9
2026/04/13 14:56:45.26,IMU,-32.71,-57.13,-1022.46,-0.91,8.27,-1.53,-16.65,4.80,-46.05,30.1
2026/04/13 14:56:45.36,IMU,-53.22,-58.59,-1014.16,-1.40,0.69,1.10,-15.15,3.60,-47.55,29.9
2026/04/13 14:56:45.46,IMU,-47.36,-46.39,-1005.86,-0.96,-9.88,3.22,-14.40,3.60,-47.85,29.9
2026/04/13 14:56:45.56,IMU,-31.74,-59.08,-1006.84,-3.69,-1.78,-3.34,-13.95,4.20,-48.75,30.1
2026/04/13 14:56:45.66,IMU,-43.46,-50.29,-990.23,-1.54,0.47,-0.85,-13.50,4.20,-48.75,30.0
2026/04/13 14:56:45.76,IMU,-28.81,-40.04,-1017.58,-1.98,1.13,-0.12,-14.70,5.70,-48.00,29.8
2026/04/13 14:56:45.86,IMU,-49.32,-41.99,-1013.18,-0.02,0.78,0.42,-13.50,4.95,-47.40,29.9
2026/04/13 14:56:45.96,IMU,-84.96,-50.78,-998.05,-1.52,0.22,-5.73,-13.50,3.75,-47.40,30.1
2026/04/13 14:56:46.06,IMU,-39.55,-43.46,-990.72,-2.11,-0.21,-3.50,-13.95,5.70,-48.45,29.9
2026/04/13 14:56:46.16,IMU,-55.18,-61.52,-995.12,-1.19,-3.89,-2.82,-14.25,4.65,-48.75,30.3
2026/04/13 14:56:46.26,IMU,-42.97,-56.15,-1000.00,-1.55,1.47,-0.91,-17.25,3.75,-45.15,30.0
2026/04/13 14:56:46.36,IMU,-39.55,-69.82,-1003.42,-1.36,-1.72,0.96,-14.70,4.20,-49.20,29.8
2026/04/13 14:56:46.46,IMU,-37.60,-51.27,-989.75,-1.43,-0.46,-1.53,-15.00,4.95,-49.20,29.6
2026/04/13 14:56:46.56,IMU,-28.32,-49.32,-1008.79,0.85,3.24,1.74,-14.25,5.70,-49.50,30.0
2026/04/13 14:56:46.66,IMU,-33.20,-50.29,-1012.70,-1.15,-0.03,-3.55,-15.00,4.20,-49.20,29.9
2026/04/13 14:56:46.76,IMU,-73.24,-58.59,-990.72,-0.34,-6.43,-1.18,-14.25,4.20,-48.75,30.1
2026/04/13 14:56:46.86,IMU,-64.94,-58.59,-1020.02,-1.58,-5.18,-2.23,-14.85,4.35,-49.35,29.9
2026/04/13 14:56:46.96,IMU,-41.50,-61.52,-995.12,-3.53,-1.52,-0.76,-13.50,4.20,-49.95,30.0
2026/04/13 14:56:47.07,IMU,-48.83,-44.43,-995.61,-1.09,-2.75,-0.47,-15.00,4.65,-49.20,29.9
2026/04/13 14:56:47.17,IMU,-48.34,-48.83,-1004.39,-1.80,0.73,-0.46,-14.25,4.20,-49.20,29.9
2026/04/13 14:56:47.27,IMU,-50.29,-66.41,-1014.65,0.41,0.43,0.04,-13.35,4.05,-46.80,29.9
2026/04/13 14:56:47.37,IMU,-48.83,-45.41,-1040.53,-2.89,-2.69,1.26,-13.65,4.35,-49.35,29.8
2026/04/13 14:56:47.47,IMU,-49.32,-59.08,-1026.86,3.49,-2.56,1.74,-12.90,4.35,-48.30,29.8
2026/04/13 14:56:47.57,IMU,-58.59,-67.87,-1000.00,-0.37,-4.01,0.74,-13.35,3.30,-50.10,29.9
2026/04/13 14:56:47.67,IMU,-56.64,-65.92,-1005.86,-0.25,-2.89,2.42,-11.85,3.60,-49.80,29.8
2026/04/13 14:56:47.77,IMU,-69.34,-70.80,-997.56,-0.97,-2.80,1.59,-12.90,2.10,-50.40,29.8
2026/04/13 14:56:47.87,IMU,-70.31,-67.87,-1033.69,-0.36,-1.88,0.14,-13.35,4.80,-51.15,30.1
2026/04/13 14:56:47.97,IMU,-79.10,-65.43,-1009.77,-0.59,-4.34,1.21,-13.20,3.45,-51.00,29.9
2026/04/13 14:56:48.07,IMU,-42.97,-62.99,-1009.28,-3.33,11.17,-3.92,-13.95,3.45,-49.95,30.2
2026/04/13 14:56:48.17,IMU,-64.94,-50.29,-990.23,-0.74,-4.35,2.90,-14.40,4.80,-48.60,29.8
2026/04/13 14:56:48.27,IMU,-51.27,-65.43,-1019.53,-1.40,4.04,-1.14,-13.65,4.05,-49.80,29.8
2026/04/13 14:56:48.37,IMU,-68.36,-70.31,-994.63,-1.83,-3.08,-3.57,-15.15,4.80,-49.35,30.1
2026/04/13 14:56:48.48,IMU,-67.38,-50.78,-999.51,-4.72,4.03,-0.87,-14.70,3.75,-49.95,29.8
2026/04/13 14:56:48.58,IMU,-58.11,-66.41,-1000.98,-1.50,0.27,-2.10,-13.50,3.45,-50.25,30.1
2026/04/13 14:56:48.68,IMU,-60.06,-67.38,-1018.55,-3.67,-2.48,-3.12,-15.60,3.60,-49.05,29.9
2026/04/13 14:56:48.78,IMU,-60.06,-61.04,-1003.42,-1.90,-0.67,-0.66,-13.95,3.45,-49.95,29.9
2026/04/13 14:56:48.88,IMU,-69.34,-60.06,-1009.77,-1.75,0.64,-2.06,-12.75,2.25,-49.95,29.6
2026/04/13 14:56:48.98,IMU,-45.90,-70.31,-1012.70,-0.50,0.60,-0.33,-14.40,3.30,-50.10,30.1
2026/04/13 14:56:49.08,IMU,-43.95,-56.64,-997.56,-1.71,0.60,-0.31,-13.65,2.85,-49.05,29.8
2026/04/13 14:56:49.18,IMU,-49.32,-68.85,-1002.93,-0.56,-1.85,-0.26,-14.25,3.75,-49.50,29.9
2026/04/13 14:56:49.28,IMU,-63.48,-53.22,-996.58,-1.85,-1.35,0.35,-14.10,4.05,-49.05,29.8
2026/04/13 14:56:49.38,IMU,-52.73,-46.39,-1003.42,0.15,0.61,-0.69,-13.65,4.05,-47.55,30.0
2026/04/13 14:56:49.48,IMU,-54.20,-50.78,-1004.39,-1.82,-0.09,-2.24,-14.85,2.85,-47.85,29.9
2026/04/13 14:56:49.58,IMU,-53.22,-65.43,-1005.86,-1.65,-1.47,-1.60,-14.25,4.20,-48.00,30.2
2026/04/13 14:56:49.68,IMU,-55.66,-54.20,-1014.16,-3.27,-0.34,-1.85,-13.95,3.45,-49.50,30.1
2026/04/13 14:56:49.78,IMU,-60.06,-65.43,-958.98,-3.28,-3.21,-5.79,-13.20,2.70,-51.00,29.8
2026/04/13 14:56:49.88,IMU,10.74,-83.01,-1020.02,-1.01,-4.53,0.94,-14.85,3.60,-50.10,29.9
2026/04/13 14:56:49.98,IMU,-67.38,-50.78,-1283.20,0.69,0.63,0.82,-13.65,6.00,-49.80,30.3
2026/04/13 14:56:50.08,IMU,-62.50,-76.66,-986.33,0.46,1.10,-3.16,-15.15,3.60,-49.35,29.9
2026/04/13 14:56:50.18,IMU,-66.89,-61.04,-1010.25,-0.47,-5.69,-0.99,-14.40,3.60,-50.10,29.8
2026/04/13 14:56:50.28,IMU,-26.37,-56.64,-1007.32,-0.54,-7.56,1.11,-13.65,4.05,-50.40,29.9
2026/04/13 14:56:50.38,IMU,-29.79,-66.41,-1004.88,-1.17,-5.61,-1.39,-14.40,2.85,-48.60,30.1
2026/04/13 14:56:50.48,IMU,-52.25,-63.96,-1003.42,-0.33,-2.19,0.27,-13.95,3.75,-49.20,30.1
2026/04/13 14:56:50.58,IMU,-56.64,-56.15,-989.75,0.05,2.14,0.60,-14.25,4.65,-49.20,29.9
2026/04/13 14:56:50.68,IMU,-68.85,-76.17,-1021.97,-0.15,-2.53,-1.50,-12.45,3.00,-50.70,29.9
2026/04/13 14:56:50.78,IMU,-72.27,-72.75,-1006.84,-1.64,-4.01,-0.03,-13.35,4.05,-49.35,30.3
2026/04/13 14:56:50.88,IMU,-69.34,-60.06,-1009.77,-1.72,-5.49,-2.79,-12.90,4.35,-51.15,29.9
2026/04/13 14:56:50.98,IMU,-70.31,-65.92,-999.51,-1.80,-0.27,-0.27,-12.45,4.20,-50.25,30.0
2026/04/13 14:56:51.08,IMU,-55.18,-68.85,-995.61,-1.53,3.87,-1.59,-14.25,3.00,-50.25,29.8
2026/04/13 14:56:51.18,IMU,-68.36,-86.91,-989.75,-1.60,-0.13,-0.20,-13.50,2.70,-50.70,30.0
2026/04/13 14:56:51.28,IMU,-65.92,-71.29,-1002.44,-3.47,2.98,-3.48,-13.35,2.40,-50.85,29.9
2026/04/13 14:56:51.39,IMU,-68.85,-60.55,-992.68,-0.92,-0.77,0.06,-15.45,3.45,-49.20,29.9
2026/04/13 14:56:51.49,IMU,-69.34,-64.94,-1006.35,-4.45,-0.27,-0.98,-14.40,3.30,-50.85,30.1
2026/04/13 14:56:51.59,IMU,-47.85,-66.89,-1013.18,-0.80,0.00,-1.14,-14.40,2.40,-49.80,29.9
2026/04/13 14:56:51.69,IMU,-62.50,-61.52,-1011.23,-3.77,1.22,-2.04,-13.65,4.05,-49.05,29.9
2026/04/13 14:56:51.79,IMU,-59.57,-62.50,-1002.93,-1.46,0.59,-1.18,-14.10,3.30,-49.35,29.9
2026/04/13 14:56:51.89,IMU,-101.07,-69.82,-1051.76,1.56,-2.31,4.25,-14.10,3.60,-51.15,30.0
2026/04/13 14:56:51.99,IMU,-172.85,-30.27,-934.57,2.16,-78.40,-7.11,-11.40,4.80,-51.15,29.9
2026/04/13 14:56:52.09,IMU,-298.34,-162.60,-846.68,15.11,-248.98,-18.52,4.05,1.80,-53.25,29.9
2026/04/13 14:56:52.19,IMU,-779.30,-111.82,-915.53,-27.45,-143.99,-4.65,19.50,0.75,-48.75,30.2
2026/04/13 14:56:52.29,IMU,-791.50,-68.85,-547.85,9.87,-186.32,-1.27,34.50,2.40,-38.55,30.0
2026/04/13 14:56:52.39,IMU,-931.64,-124.51,-277.34,-3.03,-121.11,13.83,39.90,3.75,-32.55,29.8
2026/04/13 14:56:52.49,IMU,-976.07,-75.68,-190.43,4.01,-68.09,3.66,49.20,3.30,-23.85,29.9
2026/04/13 14:56:52.59,IMU,-1057.13,-62.99,-100.59,6.86,-22.84,0.85,50.10,3.75,-21.75,29.9
2026/04/13 14:56:52.69,IMU,-969.73,-50.29,-76.17,-4.61,-41.13,8.17,51.75,4.05,-18.60,30.0
2026/04/13 14:56:52.79,IMU,-971.19,-33.69,33.69,4.40,-13.91,3.17,54.45,5.55,-15.30,30.0
2026/04/13 14:56:52.89,IMU,-999.02,-42.48,27.83,-2.16,-9.52,7.43,54.45,6.30,-14.25,29.9
2026/04/13 14:56:52.99,IMU,-1021.48,-7.81,56.15,1.22,-3.43,-1.16,54.30,6.60,-13.65,30.1
2026/04/13 14:56:53.09,IMU,-969.24,-25.88,65.92,-0.72,-4.65,3.96,54.60,6.15,-12.15,30.1
2026/04/13 14:56:53.19,IMU,-986.82,-37.60,38.57,-5.40,0.64,0.72,53.25,5.25,-11.55,29.7
2026/04/13 14:56:53.29,IMU,-984.86,-34.18,82.03,-1.30,1.95,2.50,52.95,4.35,-11.55,30.0
2026/04/13 14:56:53.39,IMU,-992.19,-35.64,61.04,-0.75,-2.33,0.03,51.30,5.40,-11.10,30.1
2026/04/13 14:56:53.49,IMU,-974.61,-35.64,40.04,-2.50,-1.06,-1.38,54.30,5.40,-11.10,29.7
2026/04/13 14:56:53.59,IMU,-972.17,-35.16,63.96,-3.08,1.31,-0.43,53.85,5.70,-12.15,29.6
2026/04/13 14:56:53.69,IMU,-987.30,-33.69,43.46,1.59,-0.34,0.43,53.55,5.70,-12.45,29.9
2026/04/13 14:56:53.79,IMU,-995.12,-29.30,53.71,-2.33,-2.34,0.11,52.20,6.30,-12.30,30.0
2026/04/13 14:56:53.89,IMU,-986.33,-36.62,57.62,-0.33,-0.57,0.94,54.90,6.30,-13.05,29.9
2026/04/13 14:56:53.99,IMU,-988.28,-26.37,49.32,-3.69,-0.76,1.11,54.30,5.70,-12.90,30.0
2026/04/13 14:56:54.09,IMU,-1004.88,-37.60,60.06,-0.19,-4.18,0.69,55.20,6.30,-13.05,30.0
2026/04/13 14:56:54.19,IMU,-1001.46,-38.09,83.98,-1.74,-5.14,0.53,53.85,4.95,-11.85,30.0
2026/04/13 14:56:54.30,IMU,-990.23,-36.62,58.11,-2.50,1.25,-0.08,53.55,6.15,-11.85,29.7
2026/04/13 14:56:54.40,IMU,-987.79,-17.09,78.61,-1.07,-1.50,-0.94,52.35,4.95,-8.40,29.9
2026/04/13 14:56:54.50,IMU,-980.96,-31.74,59.57,-0.28,-1.50,3.56,53.55,6.60,-10.65,29.9
2026/04/13 14:56:54.60,IMU,-985.84,-34.18,71.29,-1.84,-0.34,0.56,53.85,7.35,-12.90,29.8
2026/04/13 14:56:54.70,IMU,-981.45,-21.48,51.76,-0.41,-5.74,1.12,54.45,6.30,-11.55,29.9
2026/04/13 14:56:54.80,IMU,-995.61,-27.34,80.57,-1.73,-1.02,-3.24,54.90,6.00,-12.30,29.8
2026/04/13 14:56:54.90,IMU,-989.26,-34.67,78.12,-0.95,2.27,-0.37,54.60,6.90,-12.45,30.0
2026/04/13 14:56:55.00,IMU,-968.26,-21.97,66.41,-2.08,0.41,-0.37,53.25,6.30,-12.30,29.6
2026/04/13 14:56:55.10,IMU,-978.52,-17.09,57.62,-0.66,-1.03,1.32,53.25,6.30,-12.75,29.9
2026/04/13 14:56:55.20,IMU,-967.29,-33.20,31.74,-1.45,2.13,-1.54,51.75,6.00,-13.05,30.2
2026/04/13 14:56:55.30,IMU,-981.93,-41.50,88.87,-1.66,2.44,-2.03,54.60,5.40,-12.15,30.1
2026/04/13 14:56:55.40,IMU,-997.07,-13.67,49.32,3.25,1.56,-1.14,54.90,5.55,-14.25,29.8
2026/04/13 14:56:55.50,IMU,-968.26,-14.65,60.06,-0.33,-3.41,1.64,54.00,4.80,-13.80,30.2
2026/04/13 14:56:55.60,IMU,-982.42,-16.60,116.70,-2.77,-4.26,-3.43,56.10,5.40,-12.90,29.9
2026/04/13 14:56:55.70,IMU,-976.07,-34.67,63.48,1.24,-3.99,-1.11,55.20,6.00,-14.55,30.1
2026/04/13 14:56:55.80,IMU,-977.54,-27.83,79.10,-2.08,-0.68,2.61,55.65,4.80,-14.25,29.8
2026/04/13 14:56:55.90,IMU,-968.26,-23.44,58.59,0.96,0.23,0.56,55.65,5.25,-12.00,30.0
2026/04/13 14:56:56.00,IMU,-989.26,-29.79,67.87,-3.86,1.38,-3.66,55.65,5.55,-13.80,30.2
2026/04/13 14:56:56.10,IMU,-965.82,-32.71,70.80,-1.65,-1.00,3.50,56.10,5.40,-11.85,29.7
2026/04/13 14:56:56.20,IMU,-979.98,-24.90,71.29,-2.18,1.24,-1.95,55.65,6.75,-12.30,29.9
2026/04/13 14:56:56.30,IMU,-981.93,-24.90,63.96,-2.21,-0.52,-5.12,55.05,6.15,-13.20,29.9
2026/04/13 14:56:56.40,IMU,-970.21,-30.76,59.57,-0.41,1.26,-0.60,54.90,6.30,-14.25,29.9
2026/04/13 14:56:56.50,IMU,-988.77,-16.11,64.45,-0.70,-1.06,-3.80,55.05,7.35,-13.20,30.3
2026/04/13 14:56:56.60,IMU,-982.91,-32.23,66.89,-4.24,-3.40,1.19,56.10,7.35,-13.95,29.9
2026/04/13 14:56:56.70,IMU,-970.21,-32.71,77.64,-1.31,-1.38,-3.12,55.20,6.30,-14.25,30.0
2026/04/13 14:56:56.80,IMU,-972.66,-31.25,72.27,-1.44,-3.11,-0.69,55.80,5.70,-12.90,29.8
2026/04/13 14:56:56.90,IMU,-987.30,-30.27,63.48,-0.82,-1.69,0.29,55.35,6.15,-12.45,30.1
2026/04/13 14:56:57.00,IMU,-994.63,-15.63,72.27,-0.18,1.08,0.84,54.90,6.00,-14.25,29.8
2026/04/13 14:56:57.10,IMU,-993.65,-31.25,77.15,-1.98,-3.72,-2.72,55.35,5.70,-13.95,29.9
2026/04/13 14:56:57.20,IMU,-979.98,-23.93,65.92,-0.96,-0.11,0.84,55.80,6.90,-13.20,29.8
2026/04/13 14:56:57.31,IMU,-987.79,-23.44,71.78,-0.66,-2.76,-3.27,55.05,6.15,-13.20,29.9
2026/04/13 14:56:57.41,IMU,-994.63,-29.30,73.24,-0.39,-0.76,-0.69,53.70,4.35,-13.80,29.9
2026/04/13 14:56:57.51,IMU,-984.38,-44.92,49.80,-1.72,0.58,-1.77,55.80,4.95,-13.20,29.6
2026/04/13 14:56:57.61,IMU,-988.28,-13.18,66.89,-0.24,-3.17,-0.90,54.45,6.00,-13.05,29.8
2026/04/13 14:56:57.71,IMU,-980.47,-17.09,47.36,-1.76,0.82,0.65,55.05,5.70,-13.20,29.9
2026/04/13 14:56:57.81,IMU,-1001.95,-32.23,41.02,0.89,-0.09,0.86,55.80,5.70,-13.65,29.8
2026/04/13 14:56:57.91,IMU,-965.33,-42.48,62.99,-1.73,-2.87,-2.69,55.65,6.30,-13.50,29.8
2026/04/13 14:56:58.01,IMU,-1074.22,7.81,88.38,-1.74,0.48,-1.98,55.05,6.90,-13.65,29.9
2026/04/13 14:56:58.11,IMU,-990.72,-45.41,71.29,0.11,-1.24,0.37,55.95,5.55,-13.50,30.2
2026/04/13 14:56:58.21,IMU,-998.05,-39.06,49.32,-1.89,0.21,-3.56,53.70,6.75,-14.55,30.0
2026/04/13 14:56:58.31,IMU,-994.14,-25.88,71.29,-0.27,-0.76,0.96,55.35,6.90,-12.90,29.6
2026/04/13 14:56:58.41,IMU,-983.89,-40.04,68.36,-2.11,-0.40,0.76,55.65,6.30,-12.30,29.8
2026/04/13 14:56:58.51,IMU,-972.66,-44.43,70.31,-1.40,-0.44,-3.12,54.00,6.00,-13.05,30.1
2026/04/13 14:56:58.61,IMU,-962.40,-21.00,56.64,-0.95,1.29,-2.64,54.90,4.80,-13.50,29.8
2026/04/13 14:56:58.71,IMU,-979.00,-29.79,64.45,-1.34,2.51,-0.10,56.10,6.60,-12.45,29.7
2026/04/13 14:56:58.81,IMU,-992.68,-41.99,59.08,-0.36,-0.47,2.98,55.95,6.30,-13.05,29.9
2026/04/13 14:56:58.91,IMU,-988.77,-25.39,70.80,-0.98,-2.82,2.34,55.80,6.15,-13.65,29.9
2026/04/13 14:56:59.01,IMU,-994.63,-34.18,61.04,-1.60,1.82,-1.03,54.45,6.30,-13.50,29.9
2026/04/13 14:56:59.11,IMU,-981.93,-37.11,60.55,-0.87,-2.19,-2.16,56.10,6.90,-13.20,29.9
2026/04/13 14:56:59.21,IMU,-994.14,-24.41,59.08,-3.09,-1.70,-3.08,54.30,6.60,-11.85,29.9
2026/04/13 14:56:59.31,IMU,-995.61,-34.67,75.20,-1.33,-2.00,0.98,55.65,5.25,-14.25,30.0
2026/04/13 14:56:59.41,IMU,-981.45,-21.00,79.10,0.12,-1.02,-2.18,54.30,6.15,-13.65,29.8
2026/04/13 14:56:59.51,IMU,-977.54,-19.53,51.27,-2.58,-1.56,-1.98,56.10,6.60,-12.90,30.1
2026/04/13 14:56:59.61,IMU,-987.30,-27.83,59.08,-2.05,2.14,-2.35,54.45,6.75,-14.55,29.8
2026/04/13 14:56:59.71,IMU,-977.54,-32.23,67.38,-2.42,-1.46,2.90,55.35,5.70,-13.20,30.0
2026/04/13 14:56:59.81,IMU,-990.23,-26.37,59.57,-1.66,-0.18,-3.98,55.95,6.30,-13.80,30.1
2026/04/13 14:56:59.91,IMU,-986.82,-30.27,63.48,-0.93,-1.01,0.44,54.60,6.60,-12.90,30.1
2026/04/13 14:57:00.01,IMU,-986.82,-29.30,92.29,-1.04,1.18,-1.24,55.80,5.70,-13.65,30.1
2026/04/13 14:57:00.11,IMU,-978.03,-15.14,57.13,-3.32,-2.18,-0.72,55.35,7.35,-13.20,29.8
2026/04/13 14:57:00.21,IMU,-977.05,-27.34,67.87,-4.57,0.75,-3.21,54.60,5.70,-13.95,29.8
2026/04/13 14:57:00.32,IMU,-996.58,-18.07,73.24,-1.58,-0.43,-2.05,54.00,4.80,-13.05,30.0
2026/04/13 14:57:00.42,IMU,-1002.93,-25.39,92.77,-0.71,-1.89,-0.76,54.90,6.75,-13.50,29.9
2026/04/13 14:57:00.52,IMU,-977.54,-29.79,68.36,-1.72,0.29,-0.82,55.05,6.15,-12.45,29.9
2026/04/13 14:57:00.62,IMU,-980.96,-32.71,65.43,-0.72,-1.57,0.93,55.35,5.70,-12.15,29.9
2026/04/13 14:57:00.72,IMU,-1020.51,3.91,107.91,-2.57,0.44,2.10,57.15,6.75,-12.30,29.8
2026/04/13 14:57:00.82,IMU,-1002.93,-16.11,52.25,-3.11,4.06,-1.85,55.05,5.40,-13.20,29.9
2026/04/13 14:57:00.92,IMU,-1007.32,-13.67,90.82,2.94,6.54,-2.73,56.85,5.40,-13.20,30.3
2026/04/13 14:57:01.02,IMU,-1065.43,56.64,236.82,12.46,14.99,-6.59,54.90,5.25,-12.75,29.9
2026/04/13 14:57:01.12,IMU,-1096.19,21.48,151.86,4.00,143.13,-13.05,53.70,5.25,-21.60,29.9
2026/04/13 14:57:01.22,IMU,-1033.69,-47.36,-276.37,11.32,43.20,2.63,46.20,2.85,-32.70,29.7
2026/04/13 14:57:01.32,IMU,-939.45,-89.36,-419.92,-5.18,144.75,-4.31,42.00,3.30,-36.75,30.1
2026/04/13 14:57:01.42,IMU,-763.67,-62.50,-756.84,6.88,218.75,-24.85,29.10,0.45,-45.60,29.9
2026/04/13 14:57:01.52,IMU,-344.24,-228.03,-1098.14,3.49,250.13,-19.82,8.10,-1.65,-51.15,29.9
2026/04/13 14:57:01.62,IMU,52.73,-146.48,-1134.28,24.34,173.61,-25.38,-19.80,-5.25,-50.10,29.9
2026/04/13 14:57:01.72,IMU,237.79,-318.36,-961.43,6.33,70.15,-18.15,-34.80,-5.25,-40.80,29.9
2026/04/13 14:57:01.82,IMU,323.24,-85.94,-894.04,-14.58,71.81,-8.30,-40.35,-4.65,-32.55,30.1
2026/04/13 14:57:01.92,IMU,692.38,-67.87,-491.21,-28.59,115.50,30.56,-49.95,-4.05,-19.80,29.8
2026/04/13 14:57:02.02,IMU,671.88,-117.68,80.57,-18.02,87.86,-3.53,-48.45,-6.00,-23.40,29.9
2026/04/13 14:57:02.12,IMU,703.61,-96.19,-433.59,-26.15,111.08,5.85,-54.45,-3.30,-17.55,29.9
2026/04/13 14:57:02.22,IMU,875.49,-115.23,-507.81,-15.73,59.08,-6.89,-61.50,-4.20,-8.10,29.9
2026/04/13 14:57:02.32,IMU,981.93,-107.91,-187.01,-7.33,87.81,-11.15,-61.95,-3.60,-2.40,29.8
2026/04/13 14:57:02.42,IMU,893.07,51.27,27.34,-0.37,103.14,-14.15,-65.55,0.00,9.60,30.1
2026/04/13 14:57:02.52,IMU,1048.83,-92.77,-188.96,6.37,24.18,-14.77,-65.25,1.50,13.20,29.7
2026/04/13 14:57:02.62,IMU,1004.88,-7.81,28.81,-4.98,23.21,-2.78,-66.30,1.50,17.40,29.9
2026/04/13 14:57:02.72,IMU,1004.39,-24.90,45.90,-3.43,18.89,2.63,-66.75,2.25,18.75,30.0
2026/04/13 14:57:02.82,IMU,1027.34,-6.35,120.61,-1.98,6.96,3.28,-66.15,2.10,19.05,29.8
2026/04/13 14:57:02.92,IMU,1013.67,-7.81,21.00,-1.11,-1.78,-1.53,-66.60,2.10,15.30,29.9
2026/04/13 14:57:03.03,IMU,1007.32,2.93,74.71,2.15,5.97,0.45,-65.55,2.70,17.40,29.9
2026/04/13 14:57:03.13,IMU,1012.21,-15.63,20.02,2.90,0.66,-2.11,-67.50,3.45,16.95,29.9
2026/04/13 14:57:03.23,IMU,1017.58,-9.28,39.55,-3.17,4.83,1.62,-65.55,3.00,18.75,30.1
2026/04/13 14:57:03.33,IMU,1019.53,-4.88,8.30,1.74,-7.09,-1.45,-65.25,2.70,18.00,29.7
2026/04/13 14:57:03.43,IMU,1006.84,4.88,21.48,-1.69,-8.24,-3.15,-67.05,2.25,18.45,30.0
2026/04/13 14:57:03.53,IMU,1010.25,-8.30,29.79,-1.85,-4.69,0.68,-69.00,1.50,21.00,29.8
2026/04/13 14:57:03.63,IMU,1021.00,-5.37,21.48,1.80,-0.16,1.48,-66.75,1.80,18.75,29.8
2026/04/13 14:57:03.73,IMU,1012.21,3.42,3.42,-1.34,-0.17,0.68,-67.50,4.65,18.00,29.7
2026/04/13 14:57:03.83,IMU,1010.25,-3.42,16.60,-1.69,0.60,0.00,-66.90,2.85,17.85,30.0
2026/04/13 14:57:03.93,IMU,1019.53,-24.41,31.74,-2.06,-2.49,-0.95,-65.70,3.60,18.60,29.9
2026/04/13 14:57:04.03,IMU,1007.32,-3.91,9.77,-0.73,-1.53,-1.03,-66.00,3.75,19.20,29.6
2026/04/13 14:57:04.13,IMU,1010.25,-16.11,42.97,-0.50,-0.96,-0.84,-65.55,3.75,18.00,29.9
2026/04/13 14:57:04.23,IMU,1020.51,-17.58,18.07,0.55,-0.96,-0.93,-66.00,3.00,18.00,29.8
2026/04/13 14:57:04.33,IMU,1012.21,-7.32,29.30,-3.25,-1.95,0.37,-65.70,3.60,17.10,29.8
2026/04/13 14:57:04.43,IMU,1006.35,-17.58,24.41,-2.33,-0.78,-0.98,-67.05,3.00,18.00,29.6
2026/04/13 14:57:04.53,IMU,1003.91,1.46,-10.25,-1.27,1.34,-1.66,-69.90,-0.45,23.10,29.9
2026/04/13 14:57:04.63,IMU,996.09,-5.37,33.69,-2.27,-0.04,-0.73,-66.15,4.05,17.85,29.9
2026/04/13 14:57:04.73,IMU,1002.93,-12.70,16.60,-1.76,1.21,-0.24,-66.75,3.00,18.45,29.8
2026/04/13 14:57:04.83,IMU,1009.77,-25.88,32.23,-1.21,-4.08,-0.94,-66.75,3.75,18.75,29.9
2026/04/13 14:57:04.93,IMU,1008.79,-5.86,7.81,-1.08,-1.14,1.63,-66.60,4.05,18.30,29.8
2026/04/13 14:57:05.03,IMU,1018.55,-9.77,50.29,-3.32,0.21,-1.53,-65.70,3.60,18.30,30.1
2026/04/13 14:57:05.13,IMU,1008.30,-12.21,28.81,-2.47,-6.39,-2.16,-65.70,3.60,18.30,29.9
2026/04/13 14:57:05.23,IMU,1000.00,39.55,-69.82,-1.01,1.63,0.50,-66.00,1.50,17.70,30.1
2026/04/13 14:57:05.33,IMU,1012.70,-12.21,5.86,1.50,-0.60,-1.43,-66.15,2.40,18.30,29.9
2026/04/13 14:57:05.43,IMU,1000.49,-17.09,30.27,-1.04,-1.26,0.28,-66.90,3.30,17.10,29.8
2026/04/13 14:57:05.53,IMU,1004.88,1.46,29.79,-1.18,0.02,-3.09,-67.35,3.30,17.55,29.9
2026/04/13 14:57:05.63,IMU,999.51,-28.32,44.43,-2.11,-3.12,3.49,-66.15,2.40,17.55,30.0
2026/04/13 14:57:05.73,IMU,1004.39,-5.37,34.67,-2.16,-3.47,-2.98,-67.05,3.45,18.75,29.6
2026/04/13 14:57:05.83,IMU,1010.25,-5.86,6.35,-0.06,0.39,2.43,-66.15,3.30,17.55,30.0
2026/04/13 14:57:05.94,IMU,1007.81,-3.91,26.37,-0.50,-6.80,-4.46,-66.15,3.30,17.55,29.8
2026/04/13 14:57:06.04,IMU,1014.65,-6.35,9.28,0.35,-1.05,-1.73,-66.00,4.20,16.95,30.0
2026/04/13 14:57:06.14,IMU,1088.38,3.42,69.34,-1.68,1.61,3.65,-66.15,4.80,16.80,29.8
2026/04/13 14:57:06.24,IMU,996.09,-4.39,-5.37,0.24,-1.06,-3.36,-64.95,4.35,18.30,30.0
2026/04/13 14:57:06.34,IMU,1014.16,2.44,18.55,-2.79,-2.41,1.65,-65.40,2.85,17.85,29.9
2026/04/13 14:57:06.44,IMU,1024.90,3.91,15.63,-0.50,4.24,0.84,-66.15,3.60,17.55,29.8
2026/04/13 14:57:06.54,IMU,1021.48,-18.55,18.07,-0.75,0.22,-0.77,-66.15,4.05,17.55,29.7
2026/04/13 14:57:06.64,IMU,1010.25,-12.70,22.46,-1.45,-0.26,-0.88,-67.35,1.65,17.55,29.9
2026/04/13 14:57:06.74,IMU,1015.63,-6.84,35.64,-1.08,-1.27,1.29,-66.60,2.40,17.85,29.6
2026/04/13 14:57:06.84,IMU,1041.50,23.93,11.72,-0.74,1.46,-1.05,-65.40,3.75,19.20,29.7
2026/04/13 14:57:06.94,IMU,1022.46,-2.44,-24.41,-1.98,0.01,-0.90,-66.75,3.00,18.45,30.1
2026/04/13 14:57:07.04,IMU,1006.84,-13.18,42.48,-1.87,-0.37,-1.85,-66.75,3.00,18.00,29.8
2026/04/13 14:57:07.14,IMU,1022.95,-10.74,27.83,-1.15,-3.60,-0.26,-64.50,3.75,16.20,30.0
2026/04/13 14:57:07.24,IMU,1021.00,-13.67,63.48,0.97,-1.31,-0.69,-64.95,3.60,18.30,29.8
2026/04/13 14:57:07.34,IMU,1021.48,-4.39,-3.42,-1.01,-0.38,0.11,-65.40,4.05,16.80,30.0
2026/04/13 14:57:07.44,IMU,1020.51,-13.67,71.29,1.61,-9.92,-0.52,-65.70,4.35,17.10,29.8
2026/04/13 14:57:07.54,IMU,1010.25,-12.21,-51.27,1.06,-3.81,-1.99,-66.75,2.70,16.65,29.8
2026/04/13 14:57:07.64,IMU,1016.60,-12.21,-5.86,-0.74,0.53,0.27,-65.40,3.30,16.05,29.9
2026/04/13 14:57:07.74,IMU,1066.41,-35.16,-133.30,14.57,-44.70,-2.76,-65.55,2.70,15.15,29.9
2026/04/13 14:57:07.84,IMU,1008.79,-5.37,-83.98,-0.98,12.76,1.23,-66.15,3.30,14.25,29.8
2026/04/13 14:57:07.94,IMU,1031.74,-51.76,-32.71,-1.61,-6.57,1.06,-65.55,3.00,13.20,29.8
2026/04/13 14:57:08.04,IMU,1003.91,28.32,-45.41,-2.83,13.59,-3.18,-66.75,2.25,12.90,29.9
2026/04/13 14:57:08.14,IMU,1006.35,-11.23,-18.07,-0.71,-5.37,-0.84,-65.55,3.00,15.15,29.9
2026/04/13 14:57:08.24,IMU,1005.37,-22.46,-69.82,-0.59,-2.76,1.64,-65.70,2.85,14.55,29.9
2026/04/13 14:57:08.34,IMU,1017.58,-17.09,-27.34,-4.15,18.15,-1.24,-67.35,3.30,14.55,30.1
2026/04/13 14:57:08.44,IMU,1035.16,-8.30,66.89,-0.60,4.61,-1.40,-66.75,3.75,14.70,30.1
2026/04/13 14:57:08.54,IMU,1015.14,-18.07,2.93,-2.47,-4.84,-0.83,-67.65,2.40,16.80,29.9
2026/04/13 14:57:08.64,IMU,1012.70,-17.58,-18.07,-2.08,-3.23,-1.36,-65.55,4.95,14.70,30.0
2026/04/13 14:57:08.74,IMU,1023.93,29.79,3.42,-4.02,7.62,-1.63,-65.55,3.00,12.90,30.0
2026/04/13 14:57:08.84,IMU,1015.14,4.39,-27.34,-2.50,-3.25,-1.68,-67.50,3.00,15.15,30.1
2026/04/13 14:57:08.95,IMU,1007.81,-3.42,-41.50,-2.97,-1.52,-0.86,-65.25,3.00,14.70,30.3
2026/04/13 14:57:09.05,IMU,1014.16,-7.32,-8.30,-1.52,-3.36,-1.56,-66.30,4.65,14.40,29.9
2026/04/13 14:57:09.15,IMU,1006.35,-16.11,-13.18,-1.63,-1.14,-2.97,-66.30,3.00,13.95,29.8
2026/04/13 14:57:09.25,IMU,1009.28,0.49,-22.95,-0.88,-0.76,-0.63,-67.50,4.20,15.90,30.1
2026/04/13 14:57:09.35,IMU,1010.25,-17.09,-3.42,-2.59,2.73,-1.79,-67.50,2.70,16.20,29.6
2026/04/13 14:57:09.45,IMU,1004.39,-15.14,-23.44,-3.99,-3.43,-1.69,-65.70,5.25,15.30,29.9
2026/04/13 14:57:09.55,IMU,995.61,-14.65,-13.67,-0.24,1.02,-0.98,-66.30,3.75,15.15,29.8
2026/04/13 14:57:09.65,IMU,1019.04,8.79,-14.16,-0.31,-1.30,3.47,-67.35,4.80,14.85,30.1
2026/04/13 14:57:09.75,IMU,1002.44,-3.91,-6.35,-1.90,2.11,1.05,-66.90,2.85,15.30,29.8
2026/04/13 14:57:09.85,IMU,997.56,-2.93,-13.18,-1.37,-0.53,-0.49,-67.05,3.45,16.65,30.0
2026/04/13 14:57:09.95,IMU,1012.21,-23.44,28.81,-0.30,0.13,-0.43,-66.15,3.30,16.05,29.9
2026/04/13 14:57:10.05,IMU,1025.39,-15.63,-20.02,-2.60,-2.26,-1.22,-66.90,3.30,15.60,29.8
2026/04/13 14:57:10.15,IMU,1020.51,-21.00,-8.79,-1.90,1.21,1.93,-66.00,3.45,15.45,29.9
2026/04/13 14:57:10.25,IMU,1042.97,12.21,160.16,-0.43,-0.96,1.72,-67.05,3.45,16.65,29.9
2026/04/13 14:57:10.35,IMU,1006.84,-5.37,5.86,-2.23,-2.94,-1.68,-67.35,4.05,14.85,29.8
2026/04/13 14:57:10.45,IMU,1013.18,-9.77,11.23,-1.90,-9.24,-0.82,-66.60,3.30,16.80,30.0
2026/04/13 14:57:10.55,IMU,1000.49,-3.42,-187.99,9.69,-34.02,-1.05,-65.55,4.20,10.35,29.9
2026/04/13 14:57:10.65,IMU,1111.82,-199.71,15.14,11.76,-37.38,2.66,-65.55,3.75,8.10,29.6
2026/04/13 14:57:10.75,IMU,1019.04,11.23,-250.98,44.78,-2.76,-3.07,-64.20,2.10,4.20,29.6
2026/04/13 14:57:10.85,IMU,959.47,-23.44,-250.00,33.62,18.61,-1.90,-62.55,3.45,5.85,29.9
2026/04/13 14:57:10.95,IMU,1062.99,-44.92,-359.38,-1.14,15.63,9.14,-63.45,4.05,4.20,29.9
2026/04/13 14:57:11.05,IMU,992.19,-96.19,-177.25,11.36,-10.36,3.13,-64.95,2.85,7.20,29.9
2026/04/13 14:57:11.15,IMU,986.82,-115.72,-179.69,7.38,-20.20,-2.69,-64.65,0.45,7.50,29.9
2026/04/13 14:57:11.25,IMU,1151.86,-21.97,-404.79,60.38,-98.73,10.76,-65.40,0.15,4.50,29.9
2026/04/13 14:57:11.35,IMU,1168.46,-220.21,-147.46,91.47,38.16,16.48,-62.55,-1.05,3.30,29.9
2026/04/13 14:57:11.45,IMU,1183.11,-64.45,331.54,97.82,48.57,38.47,-58.95,-2.10,17.85,29.7
2026/04/13 14:57:11.55,IMU,655.76,-86.91,747.56,122.61,104.46,25.62,-55.05,-0.30,30.30,30.0
2026/04/13 14:57:11.65,IMU,1059.57,-157.71,5.37,61.73,-53.70,16.62,-54.60,2.25,35.10,29.8
2026/04/13 14:57:11.76,IMU,1068.36,-213.87,346.19,9.74,23.08,13.72,-54.90,3.30,29.70,29.9
2026/04/13 14:57:11.86,IMU,977.05,-169.92,232.42,32.12,-47.69,2.78,-52.35,1.80,29.55,29.9
2026/04/13 14:57:11.96,IMU,917.97,-168.46,-218.26,74.27,-57.28,8.12,-54.00,4.80,26.40,29.8
2026/04/13 14:57:12.06,IMU,991.21,-162.11,212.89,62.04,-60.54,-5.71,-53.85,6.90,22.20,29.9
2026/04/13 14:57:12.16,IMU,1110.35,-128.91,110.35,20.58,4.89,-7.82,-54.90,7.95,19.05,29.6
2026/04/13 14:57:12.26,IMU,1081.05,-105.47,-3.42,8.47,-15.89,-3.61,-56.85,8.55,16.95,29.9
2026/04/13 14:57:12.36,IMU,972.17,-132.81,73.24,17.57,5.87,-16.86,-57.90,10.65,16.05,30.1
2026/04/13 14:57:12.46,IMU,922.85,-183.11,-84.47,27.67,4.38,-18.21,-56.85,12.00,16.95,29.9
2026/04/13 14:57:12.56,IMU,998.05,-57.13,135.74,9.47,7.45,-16.93,-54.60,13.95,18.45,29.6
2026/04/13 14:57:12.66,IMU,989.26,15.14,37.60,9.53,-11.53,-8.15,-58.35,13.50,21.45,30.0
2026/04/13 14:57:12.76,IMU,1034.18,-43.95,151.86,12.50,-2.54,1.78,-55.20,17.25,17.85,29.8
2026/04/13 14:57:12.86,IMU,1067.38,-25.88,119.63,5.60,2.47,-4.82,-55.05,15.90,18.00,29.8
2026/04/13 14:57:12.96,IMU,989.75,-17.09,83.50,0.56,-3.05,0.98,-54.45,17.25,18.30,30.1
2026/04/13 14:57:13.06,IMU,1005.37,-30.27,60.55,-0.11,-3.93,-0.67,-55.35,16.65,17.70,29.9
2026/04/13 14:57:13.16,IMU,1014.65,-19.53,86.43,2.23,-2.21,-1.67,-54.30,16.65,17.40,30.3
2026/04/13 14:57:13.26,IMU,1023.93,-4.88,88.38,0.65,1.26,0.15,-54.00,17.25,17.85,29.9
2026/04/13 14:57:13.36,IMU,1025.39,-12.70,82.03,3.12,-4.37,3.34,-55.05,17.85,17.40,30.0
2026/04/13 14:57:13.46,IMU,1035.64,12.21,187.01,2.89,-5.98,-1.11,-54.30,17.10,17.40,29.9
2026/04/13 14:57:13.56,IMU,1040.04,-12.70,100.10,0.09,2.56,-4.22,-56.40,17.70,16.05,29.8
2026/04/13 14:57:13.66,IMU,1032.23,-10.74,93.26,-0.44,-1.26,-2.16,-54.60,15.90,18.00,29.9
2026/04/13 14:57:13.77,IMU,1036.13,-19.04,95.21,0.25,-3.98,-0.06,-55.65,18.45,17.10,29.8
2026/04/13 14:57:13.87,IMU,1019.53,-15.14,86.91,-1.39,2.95,0.89,-54.90,16.80,16.80,29.6
2026/04/13 14:57:13.97,IMU,1026.86,-3.91,95.21,-0.88,-1.93,0.23,-54.45,17.70,17.55,30.1
2026/04/13 14:57:14.07,IMU,1032.23,-10.74,70.80,-0.80,3.01,-5.07,-56.55,17.10,17.70,29.9
2026/04/13 14:57:14.17,IMU,1005.37,-20.02,55.66,-0.95,-3.72,-1.85,-56.55,17.10,16.95,29.9
2026/04/13 14:57:14.27,IMU,1008.79,-5.86,79.10,-0.04,-1.36,1.33,-55.05,15.45,16.65,29.9
2026/04/13 14:57:14.37,IMU,1012.70,-16.11,82.52,-0.46,-6.18,0.05,-54.90,18.45,17.10,29.9
2026/04/13 14:57:14.47,IMU,1019.53,-11.72,80.08,-1.18,-0.42,-2.62,-55.05,17.40,16.20,30.0
2026/04/13 14:57:14.57,IMU,1010.25,-15.63,72.75,-0.73,-4.48,-0.47,-55.35,17.85,16.20,29.6
2026/04/13 14:57:14.67,IMU,1004.88,-7.32,59.57,-1.09,0.38,-2.11,-55.35,17.85,16.65,29.9
2026/04/13 14:57:14.77,IMU,1005.37,1.95,54.69,-0.52,-2.22,0.03,-54.60,17.10,16.65,29.8
2026/04/13 14:57:14.87,IMU,1013.67,-8.30,61.04,-0.62,0.46,-0.50,-55.35,17.40,16.65,29.6
2026/04/13 14:57:14.97,IMU,1016.60,-8.30,67.38,-0.28,-1.89,-0.66,-54.90,17.25,16.05,29.8
2026/04/13 14:57:15.07,IMU,1008.79,-24.41,59.08,-1.09,-0.60,-1.34,-54.60,17.10,15.45,29.9
2026/04/13 14:57:15.17,IMU,1023.44,-10.25,61.52,-1.78,-1.44,1.81,-55.95,18.45,15.60,29.9
2026/04/13 14:57:15.27,IMU,1017.58,-7.32,88.38,-0.29,-1.40,1.32,-55.20,18.00,15.30,29.7
2026/04/13 14:57:15.37,IMU,1021.97,-16.11,77.64,-2.97,-2.22,0.66,-55.95,16.80,17.10,29.8
2026/04/13 14:57:15.47,IMU,1025.88,0.00,70.31,-1.26,-0.89,3.03,-54.30,17.40,15.90,29.9
2026/04/13 14:57:15.57,IMU,1024.90,-8.79,49.32,0.16,1.02,-0.78,-54.60,17.85,15.90,29.9
2026/04/13 14:57:15.67,IMU,1014.65,-11.72,62.50,-3.85,-1.62,-0.76,-55.05,17.40,15.45,29.8
2026/04/13 14:57:15.77,IMU,1023.93,-13.18,85.45,-4.00,-1.15,-0.72,-55.65,17.70,17.55,29.9
2026/04/13 14:57:15.87,IMU,1056.15,61.04,98.14,-25.73,-6.85,5.63,-55.05,17.10,17.70,29.9
2026/04/13 14:57:15.97,IMU,994.63,-75.68,21.00,-73.09,-41.22,-0.72,-57.15,12.90,16.05,29.9
2026/04/13 14:57:16.07,IMU,975.10,-41.99,-89.84,-80.70,-34.12,-0.23,-58.20,14.10,14.85,30.1
2026/04/13 14:57:16.17,IMU,1043.95,-24.41,-170.90,-78.23,19.47,-7.18,-58.05,12.45,13.95,30.3
2026/04/13 14:57:16.27,IMU,1005.37,65.43,-74.71,5.53,2.41,-8.54,-56.55,13.20,15.90,29.9
2026/04/13 14:57:16.37,IMU,1108.40,-30.76,42.48,-57.02,-29.69,7.46,-56.70,10.65,16.35,29.8
2026/04/13 14:57:16.47,IMU,898.93,-108.89,-91.80,105.95,29.05,44.58,-56.55,7.65,14.70,29.9
2026/04/13 14:57:16.57,IMU,1028.32,-173.34,58.11,127.73,0.44,87.26,-55.05,3.75,18.45,29.8
2026/04/13 14:57:16.67,IMU,828.13,-426.27,-26.86,50.15,-47.32,156.66,-53.70,-2.40,14.25,29.8
2026/04/13 14:57:16.78,IMU,730.96,-911.13,-38.57,-5.59,-10.96,190.78,-46.65,-20.10,13.65,29.7
2026/04/13 14:57:16.88,IMU,541.99,-808.59,-24.90,8.36,-5.82,73.02,-38.25,-31.20,12.75,29.9
2026/04/13 14:57:16.98,IMU,374.02,-933.11,-66.41,27.58,24.79,93.54,-32.55,-35.85,12.75,30.1
2026/04/13 14:57:17.08,IMU,224.12,-1027.34,2.44,4.15,-18.03,111.50,-22.95,-40.35,12.45,29.8
2026/04/13 14:57:17.18,IMU,114.26,-998.05,8.79,0.45,-37.28,56.30,-16.65,-42.15,13.05,29.8
2026/04/13 14:57:17.28,IMU,89.36,-1007.81,70.31,9.24,-4.29,21.38,-15.75,-42.30,10.65,29.9
2026/04/13 14:57:17.38,IMU,9.77,-1048.83,9.77,5.60,5.98,6.70,-13.65,-44.10,12.75,29.9
2026/04/13 14:57:17.48,IMU,14.16,-1022.46,-3.91,3.79,-11.37,6.73,-13.35,-41.40,14.55,29.7
2026/04/13 14:57:17.58,IMU,35.16,-1012.70,14.16,16.37,17.92,-7.21,-12.45,-43.05,13.65,29.6
2026/04/13 14:57:17.68,IMU,0.49,-1028.32,63.96,12.37,15.45,-6.23,-12.45,-42.30,15.45,29.9
2026/04/13 14:57:17.78,IMU,-1.46,-977.54,124.02,14.50,3.98,11.24,-12.90,-41.40,17.10,29.9
2026/04/13 14:57:17.88,IMU,78.12,-999.02,125.49,6.30,-1.44,-5.74,-11.25,-41.10,18.00,29.8
2026/04/13 14:57:17.98,IMU,68.85,-1014.16,174.80,10.32,3.27,0.06,-12.60,-40.65,20.55,29.8
2026/04/13 14:57:18.08,IMU,56.15,-1018.55,213.87,1.43,-0.71,1.92,-11.55,-40.80,20.25,29.8
2026/04/13 14:57:18.18,IMU,57.62,-1033.20,175.78,-4.03,-4.54,0.98,-11.55,-40.05,21.00,29.9
2026/04/13 14:57:18.28,IMU,24.90,-1020.51,165.04,-4.41,-3.29,1.17,-11.25,-41.10,21.00,29.9
2026/04/13 14:57:18.38,IMU,52.25,-1011.72,167.97,0.38,-1.22,4.12,-11.40,-40.95,20.55,29.9
2026/04/13 14:57:18.48,IMU,19.04,-1021.97,171.88,1.67,-2.31,-3.82,-10.05,-42.30,19.20,30.1
2026/04/13 14:57:18.58,IMU,13.67,-997.56,176.27,-0.15,1.05,-2.80,-10.80,-41.55,21.00,30.1
2026/04/13 14:57:18.68,IMU,35.16,-1004.39,174.80,-0.81,-1.90,1.52,-10.50,-40.35,21.00,30.1
2026/04/13 14:57:18.78,IMU,-25.39,-984.38,367.68,0.95,6.36,8.60,-10.50,-42.00,19.95,29.9
2026/04/13 14:57:18.88,IMU,11.23,-1007.81,173.34,-0.81,-1.58,3.33,-11.40,-41.70,21.60,30.0
2026/04/13 14:57:18.98,IMU,4.39,-1006.35,185.55,1.33,1.78,0.42,-11.55,-41.55,22.95,29.9
2026/04/13 14:57:19.08,IMU,5.37,-994.14,187.01,2.61,-0.28,-0.48,-10.80,-41.55,21.75,29.6
2026/04/13 14:57:19.18,IMU,16.11,-1001.46,182.13,-1.18,-3.05,-1.61,-11.25,-39.15,21.00,29.9
2026/04/13 14:57:19.28,IMU,11.72,-1004.88,175.78,1.18,-1.67,1.74,-11.55,-41.10,21.75,30.0
2026/04/13 14:57:19.38,IMU,8.30,-989.75,189.94,1.00,2.31,-2.48,-11.25,-40.80,19.95,30.1
2026/04/13 14:57:19.48,IMU,9.77,-997.56,189.94,0.13,-1.14,0.62,-10.80,-40.35,21.45,29.8
2026/04/13 14:57:19.58,IMU,13.18,-1006.35,201.66,0.20,-1.11,1.05,-10.50,-40.35,20.25,29.8
2026/04/13 14:57:19.69,IMU,-3.42,-1011.72,194.82,-1.19,-1.25,-1.73,-9.30,-41.10,22.50,30.1
2026/04/13 14:57:19.79,IMU,12.21,-983.40,191.89,0.76,1.40,-0.45,-10.35,-40.65,20.85,30.0
2026/04/13 14:57:19.89,IMU,-13.67,-1013.67,201.17,-1.61,-1.41,-0.37,-10.50,-40.05,21.75,29.9
2026/04/13 14:57:19.99,IMU,-0.49,-1001.46,197.27,-0.21,-0.18,0.68,-10.05,-40.35,21.75,30.0
2026/04/13 14:57:20.09,IMU,4.88,-999.51,189.45,0.24,-2.05,3.91,-9.15,-40.65,21.60,29.9
2026/04/13 14:57:20.19,IMU,6.84,-995.61,182.62,-0.67,-1.82,0.85,-9.90,-40.95,22.65,29.8
2026/04/13 14:57:20.29,IMU,0.00,-1011.23,204.59,-3.44,-3.34,-0.56,-10.80,-40.35,21.00,30.1
2026/04/13 14:57:20.39,IMU,29.30,-1003.91,187.99,-0.65,-0.21,-1.24,-11.55,-40.80,21.75,29.8
2026/04/13 14:57:20.49,IMU,9.77,-1005.37,200.20,-0.44,-0.67,0.13,-10.50,-40.80,22.50,30.1
2026/04/13 14:57:20.59,IMU,6.84,-1001.95,182.13,-2.79,-2.84,-1.66,-10.35,-40.65,21.90,29.9
2026/04/13 14:57:20.69,IMU,15.14,-1014.65,194.82,-1.08,1.35,-1.64,-9.30,-41.55,21.75,29.9
2026/04/13 14:57:20.79,IMU,0.98,-1010.74,185.06,-0.66,1.12,-1.80,-13.20,-43.50,24.75,30.0
2026/04/13 14:57:20.89,IMU,86.91,-1009.77,388.67,-4.45,-1.87,1.20,-10.35,-40.20,22.35,29.8
2026/04/13 14:57:20.99,IMU,11.72,-1018.55,172.36,-1.09,-1.44,-0.18,-10.80,-42.00,22.50,29.8
2026/04/13 14:57:21.09,IMU,18.55,-1019.04,180.66,-3.30,-2.16,1.18,-10.35,-40.95,22.65,30.3
2026/04/13 14:57:21.19,IMU,-22.46,-1145.51,300.78,-1.17,-3.36,2.07,-11.40,-39.75,22.35,30.3
2026/04/13 14:57:21.29,IMU,1.95,-1013.67,176.76,-0.85,-2.88,-2.15,-11.25,-39.60,20.70,29.7
2026/04/13 14:57:21.39,IMU,5.37,-1001.46,197.27,-1.73,0.34,-3.24,-10.05,-41.10,22.50,30.0
2026/04/13 14:57:21.49,IMU,0.49,-1005.37,178.71,-1.34,1.34,2.33,-9.60,-40.95,21.90,30.0
2026/04/13 14:57:21.59,IMU,0.49,-1000.98,186.52,-1.48,-1.93,-2.76,-10.35,-39.75,22.35,30.0
2026/04/13 14:57:21.69,IMU,-1.46,-1005.86,186.52,-2.92,-1.52,0.66,-10.35,-41.70,23.10,29.8
2026/04/13 14:57:21.79,IMU,4.39,-1007.81,194.82,0.33,-2.94,1.70,-13.20,-42.30,28.05,29.9
2026/04/13 14:57:21.89,IMU,2.93,-1002.93,166.50,-2.25,-0.63,-0.85,-9.00,-41.10,22.95,30.0
2026/04/13 14:57:21.99,IMU,-4.39,-1002.44,186.52,-2.92,-0.57,-1.60,-12.90,-40.65,21.90,29.8
2026/04/13 14:57:22.09,IMU,0.00,-1003.91,173.34,-0.18,-1.02,-0.87,-10.05,-40.35,22.50,29.8
2026/04/13 14:57:22.19,IMU,-1.46,-998.05,178.71,-3.21,0.00,-0.23,-9.60,-40.65,21.15,29.9
2026/04/13 14:57:22.29,IMU,-0.98,-1011.72,172.36,-2.40,-0.63,-3.24,-9.90,-40.95,21.60,29.9
2026/04/13 14:57:22.39,IMU,10.25,-994.14,178.71,-2.21,-2.00,-3.10,-9.90,-41.70,21.15,29.8
2026/04/13 14:57:22.49,IMU,-5.37,-999.02,182.13,-1.76,0.07,0.02,-10.50,-40.35,21.75,30.0
2026/04/13 14:57:22.59,IMU,-3.91,-974.61,278.32,-0.34,7.12,-0.40,-10.35,-40.95,20.55,29.9
2026/04/13 14:57:22.69,IMU,13.67,-980.96,166.99,-2.39,-0.91,-1.57,-9.30,-40.35,19.50,30.2
2026/04/13 14:57:22.80,IMU,8.30,-1000.98,186.52,1.39,-1.22,-2.21,-10.35,-45.30,24.90,29.7
2026/04/13 14:57:22.90,IMU,7.32,-1000.98,189.45,2.80,-3.53,1.34,-9.75,-40.35,19.20,29.9
2026/04/13 14:57:23.00,IMU,-5.37,-1015.63,140.14,-8.39,-4.87,-5.11,-9.75,-40.80,21.75,29.9
2026/04/13 14:57:23.10,IMU,59.08,-980.47,172.85,-9.06,-2.83,-2.43,-8.10,-40.20,21.60,29.9
2026/04/13 14:57:23.20,IMU,62.01,-945.31,176.27,-2.06,-2.86,-12.74,-10.35,-40.20,20.10,29.8
2026/04/13 14:57:23.30,IMU,1.46,-1010.25,213.38,-26.94,-13.93,-11.93,-11.85,-41.40,20.55,29.6
2026/04/13 14:57:23.40,IMU,-4.39,-1006.35,231.45,-122.50,-70.69,10.79,-12.15,-42.60,17.85,30.2
2026/04/13 14:57:23.51,IMU,-124.51,-904.30,-327.64,-223.89,-37.22,37.27,-11.25,-44.25,2.85,29.9
2026/04/13 14:57:23.61,IMU,-93.26,-792.97,-668.95,-179.98,-4.69,14.31,-6.90,-42.90,-17.55,30.1
2026/04/13 14:57:23.71,IMU,-123.54,-618.65,-818.36,-141.21,23.57,-5.66,-8.40,-31.65,-32.70,29.8
2026/04/13 14:57:23.81,IMU,-67.87,-414.55,-907.23,-107.15,14.69,12.76,-9.75,-22.95,-42.15,29.8
2026/04/13 14:57:23.91,IMU,-86.43,-149.41,-919.43,-92.50,-63.86,38.86,-6.90,-14.85,-45.60,29.8
2026/04/13 14:57:24.01,IMU,-139.16,-136.72,-1026.86,-55.63,-0.01,17.80,-1.80,-6.15,-49.20,29.8
2026/04/13 14:57:24.11,IMU,-173.83,3.42,-972.17,-105.89,-1.66,9.76,-0.90,3.30,-50.10,30.0
2026/04/13 14:57:24.21,IMU,-152.34,206.05,-982.91,-111.50,-8.49,22.24,-2.70,9.90,-50.10,29.9
2026/04/13 14:57:24.31,IMU,-75.68,291.99,-1125.98,-152.58,51.86,36.06,-5.55,21.00,-46.95,29.9
2026/04/13 14:57:24.41,IMU,-91.31,583.98,-764.65,-121.00,11.97,-5.35,-9.30,34.20,-41.70,29.7
2026/04/13 14:57:24.51,IMU,-40.53,702.64,-710.94,-56.98,-9.23,-1.26,-8.55,43.05,-39.15,29.8
2026/04/13 14:57:24.61,IMU,8.30,743.65,-443.85,-88.66,-1.15,7.92,-8.55,45.45,-34.05,29.9
2026/04/13 14:57:24.71,IMU,82.03,823.73,-242.19,-94.24,7.31,-3.32,-8.55,53.25,-28.50,29.9
2026/04/13 14:57:24.81,IMU,17.09,871.09,-365.72,-55.04,13.40,-9.22,-9.75,57.90,-22.50,30.1
2026/04/13 14:57:24.91,IMU,27.34,998.54,-290.53,-41.26,-0.15,-8.76,-8.85,60.75,-18.60,29.9
2026/04/13 14:57:25.01,IMU,-302.73,1790.53,-1688.96,-38.92,-5.40,6.11,-8.85,63.90,-16.05,29.8
2026/04/13 14:57:25.11,IMU,75.20,1009.28,-24.90,14.46,-28.93,15.08,-9.15,64.35,-14.55,29.8
2026/04/13 14:57:25.21,IMU,-20.51,965.82,-137.70,-3.10,-7.31,9.16,-8.25,64.05,-13.20,29.8
2026/04/13 14:57:25.31,IMU,-16.60,954.59,-145.02,10.02,-13.21,-11.15,-8.40,63.90,-13.80,29.9
2026/04/13 14:57:25.41,IMU,151.37,989.75,-269.04,6.58,42.26,-0.34,-9.15,61.95,-15.60,29.9
2026/04/13 14:57:25.51,IMU,-61.52,1217.29,210.45,-22.87,18.79,-5.47,-10.35,62.70,-15.60,29.8
2026/04/13 14:57:25.61,IMU,132.32,836.43,-284.18,4.66,16.32,5.90,-10.35,63.15,-13.80,29.9
2026/04/13 14:57:25.71,IMU,44.92,952.64,-372.56,-19.19,28.16,-0.52,-10.05,63.30,-12.45,29.9
2026/04/13 14:57:25.81,IMU,-11.23,986.82,-145.02,1.54,-4.80,5.76,-8.55,64.05,-12.90,29.7
2026/04/13 14:57:25.91,IMU,6.35,979.49,-154.79,-3.32,2.95,-1.61,-8.55,64.50,-12.15,29.8
2026/04/13 14:57:26.01,IMU,-7.32,993.16,-123.05,-2.01,1.94,0.53,-9.90,64.35,-12.30,29.9
2026/04/13 14:57:26.11,IMU,-5.86,971.68,-129.88,-1.37,-0.77,-0.96,-10.65,65.10,-13.50,30.0
2026/04/13 14:57:26.21,IMU,-35.16,970.70,-126.95,-5.50,-7.06,2.80,-10.80,64.95,-12.90,29.9
2026/04/13 14:57:26.31,IMU,-14.16,987.79,-128.42,-5.32,6.33,-2.07,-10.50,65.25,-11.10,29.9
2026/04/13 14:57:26.41,IMU,14.65,965.82,-148.44,-9.08,3.45,0.02,-8.25,64.50,-12.45,30.1
2026/04/13 14:57:26.52,IMU,-5.86,979.49,-125.49,-0.67,1.85,-0.44,-9.90,63.60,-10.50,29.9
2026/04/13 14:57:26.62,IMU,-8.79,986.33,-107.91,-6.64,-0.36,-0.22,-9.30,63.75,-9.90,30.1
2026/04/13 14:57:26.72,IMU,4.88,978.52,-97.17,-2.29,-1.34,-0.31,-10.65,65.55,-10.50,30.1
2026/04/13 14:57:26.82,IMU,5.37,979.49,-82.03,1.03,0.46,-2.18,-11.25,65.25,-12.15,29.9
2026/04/13 14:57:26.92,IMU,-4.39,976.56,-91.31,-3.06,-1.34,0.75,-11.25,63.75,-10.65,30.0
2026/04/13 14:57:27.02,IMU,3.91,992.68,-117.68,-2.34,-3.12,-2.39,-10.50,65.25,-10.65,29.9
2026/04/13 14:57:27.12,IMU,7.32,990.23,-110.84,-1.18,-1.19,-0.73,-9.75,64.05,-9.90,29.9
2026/04/13 14:57:27.22,IMU,3.91,981.93,-93.26,-3.76,-0.56,0.61,-9.60,65.55,-9.30,29.7
2026/04/13 14:57:27.32,IMU,-9.77,969.73,-118.16,-3.50,-0.08,0.08,-9.90,63.60,-9.30,29.9
2026/04/13 14:57:27.42,IMU,-7.81,984.38,-99.61,-0.99,0.34,-2.69,-10.35,64.35,-10.05,29.8
2026/04/13 14:57:27.52,IMU,0.49,990.23,-83.50,-4.17,-0.57,-1.60,-11.55,64.50,-10.65,29.9
2026/04/13 14:57:27.62,IMU,5.86,990.23,-99.61,-1.28,-3.27,-2.12,-11.55,65.70,-11.10,30.0
2026/04/13 14:57:27.72,IMU,0.00,981.45,-87.89,-3.75,0.89,-0.14,-10.65,64.65,-10.50,29.9
2026/04/13 14:57:27.82,IMU,17.58,984.38,-89.84,-0.40,5.18,0.74,-11.25,65.25,-10.35,29.9
2026/04/13 14:57:27.92,IMU,-5.86,986.33,-83.98,-0.96,1.48,-1.74,-9.90,64.35,-10.05,29.9
2026/04/13 14:57:28.02,IMU,14.16,977.05,-113.28,-3.21,0.43,-1.21,-9.90,65.55,-10.50,29.9
2026/04/13 14:57:28.12,IMU,-1.95,978.52,-120.61,0.69,-0.65,-0.27,-11.85,65.85,-9.75,29.9
2026/04/13 14:57:28.22,IMU,0.49,981.45,-98.14,-1.80,-1.51,-1.40,-9.75,63.30,-9.60,29.7
2026/04/13 14:57:28.32,IMU,0.98,970.21,-96.19,-1.01,-2.86,0.29,-10.35,65.10,-8.70,29.8
2026/04/13 14:57:28.42,IMU,3.91,980.47,-76.17,-1.12,-0.34,-0.29,-9.75,65.70,-10.35,30.0
2026/04/13 14:57:28.52,IMU,-4.39,990.72,-95.21,-0.41,-3.02,-0.70,-10.65,64.35,-9.30,29.9
2026/04/13 14:57:28.62,IMU,-4.39,971.19,-99.12,-2.99,2.85,-2.26,-10.50,64.05,-8.85,29.7
2026/04/13 14:57:28.72,IMU,4.39,979.49,-83.98,-1.51,2.05,-1.44,-11.10,64.65,-9.30,29.9
2026/04/13 14:57:28.82,IMU,2.93,991.70,-95.21,-0.44,-1.78,0.64,-11.10,65.10,-9.75,29.8
2026/04/13 14:57:28.92,IMU,17.09,977.05,-84.96,-4.24,0.39,-0.11,-11.85,65.55,-9.00,29.6
2026/04/13 14:57:29.02,IMU,-8.79,989.75,-86.43,-1.76,-0.81,0.46,-10.65,63.90,-10.80,29.9
2026/04/13 14:57:29.12,IMU,-2.93,973.14,-88.87,-2.42,-2.93,0.25,-12.15,63.60,-9.75,30.0
2026/04/13 14:57:29.22,IMU,-4.88,983.89,-104.98,-3.08,-0.13,-2.73,-10.80,64.95,-9.90,29.9
2026/04/13 14:57:29.32,IMU,0.98,999.51,-98.14,-1.46,0.22,-1.52,-10.50,66.00,-9.90,29.8
2026/04/13 14:57:29.43,IMU,3.42,972.66,-88.38,-0.83,0.65,0.11,-10.35,64.65,-9.75,30.0
2026/04/13 14:57:29.53,IMU,6.84,989.75,-90.82,-3.02,0.05,-4.13,-10.65,64.65,-10.05,29.9
2026/04/13 14:57:29.63,IMU,2.44,979.98,-90.33,-0.68,-2.61,0.12,-11.40,64.65,-10.50,30.0
2026/04/13 14:57:29.73,IMU,2.93,977.54,-88.38,-1.33,-2.79,-1.72,-11.25,65.70,-10.35,29.6
2026/04/13 14:57:29.83,IMU,16.11,983.89,-114.26,0.60,3.39,-1.75,-11.10,65.55,-10.50,30.1
2026/04/13 14:57:29.93,IMU,4.88,984.38,-95.70,0.14,-0.45,-0.63,-12.45,63.75,-8.10,29.8
2026/04/13 14:57:30.03,IMU,-0.98,985.84,-83.01,0.74,-1.30,-2.92,-9.75,66.00,-10.35,29.8
2026/04/13 14:57:30.13,IMU,-0.49,991.70,-98.14,-1.04,1.06,-2.92,-10.65,64.35,-10.50,29.7
2026/04/13 14:57:30.23,IMU,-3.42,987.30,-94.24,-0.37,-0.37,-1.22,-9.90,65.10,-9.75,30.1
2026/04/13 14:57:30.33,IMU,8.30,978.03,-89.84,-1.48,0.08,-1.10,-10.05,64.95,-9.90,30.0
2026/04/13 14:57:30.43,IMU,8.79,974.61,-92.29,-1.48,0.98,0.38,-9.15,65.85,-9.75,29.9
2026/04/13 14:57:30.53,IMU,-4.88,987.30,-88.38,-2.33,-2.46,0.24,-11.85,65.10,-9.00,29.8
2026/04/13 14:57:30.63,IMU,2.44,985.35,-85.94,-0.86,-0.84,-0.76,-11.85,63.60,-8.25,29.8
2026/04/13 14:57:30.73,IMU,-11.23,977.54,-76.17,-2.97,-2.66,2.57,-11.10,64.35,-9.30,29.9
2026/04/13 14:57:30.83,IMU,-3.91,987.79,-84.47,-2.27,-1.70,-0.30,-8.55,64.05,-9.15,29.6
2026/04/13 14:57:30.93,IMU,10.74,979.00,-81.54,-0.45,-0.03,-1.76,-13.65,61.20,-4.20,29.9
2026/04/13 14:57:31.03,IMU,-5.86,981.45,-91.31,-1.35,-1.05,-2.82,-10.35,63.15,-9.75,29.8
2026/04/13 14:57:31.13,IMU,-4.88,984.38,-89.36,-1.07,0.31,-0.84,-11.25,64.50,-8.40,29.9
2026/04/13 14:57:31.23,IMU,8.79,978.52,-83.50,-2.44,-1.56,2.47,-10.65,64.65,-9.30,29.9
2026/04/13 14:57:31.33,IMU,-11.72,990.23,-84.47,-0.31,-1.38,-1.54,-10.80,65.70,-8.40,29.9
2026/04/13 14:57:31.43,IMU,-5.37,985.84,-80.57,-0.96,-1.60,0.66,-10.50,64.05,-9.60,29.9
2026/04/13 14:57:31.53,IMU,7.32,998.54,-90.82,-1.89,1.22,1.76,-9.75,66.00,-9.90,29.5
2026/04/13 14:57:31.63,IMU,2.93,979.00,-97.17,-1.38,-1.67,0.24,-11.25,64.95,-9.60,30.2
2026/04/13 14:57:31.73,IMU,12.21,971.68,-78.12,-1.21,0.37,-1.09,-10.65,66.60,-9.30,30.1
2026/04/13 14:57:31.83,IMU,16.60,978.03,-92.29,-1.12,-1.23,-1.63,-11.10,64.65,-8.70,29.8
2026/04/13 14:57:31.94,IMU,-3.91,980.96,-88.87,-1.98,-0.28,-1.87,-9.60,64.35,-9.30,29.6
2026/04/13 14:57:32.04,IMU,-19.04,975.59,-92.77,-1.00,4.03,0.53,-10.35,64.65,-9.30,29.8
2026/04/13 14:57:32.14,IMU,11.72,981.93,-90.33,-0.88,-3.13,-1.19,-10.80,66.45,-9.90,29.9
2026/04/13 14:57:32.24,IMU,-1.95,983.89,-107.42,-0.54,-0.56,-0.22,-10.65,64.35,-10.05,30.3
2026/04/13 14:57:32.34,IMU,4.88,984.86,-81.54,1.21,1.34,1.47,-11.25,64.95,-9.90,29.8
2026/04/13 14:57:32.44,IMU,12.21,973.63,-81.54,-0.89,-0.38,-0.44,-11.40,65.55,-10.50,30.0
2026/04/13 14:57:32.54,IMU,4.88,978.03,-85.45,-4.49,-1.61,-3.60,-10.50,65.70,-9.90,30.0
2026/04/13 14:57:32.64,IMU,16.11,984.38,-83.50,-1.60,-1.76,0.58,-10.05,64.50,-9.15,29.8
2026/04/13 14:57:32.74,IMU,-6.35,972.17,-83.50,-2.60,0.02,1.57,-12.45,64.05,-9.15,29.6
2026/04/13 14:57:32.85,IMU,-6.84,982.91,-59.08,-0.87,-1.03,-1.71,-10.35,65.55,-9.00,30.1
2026/04/13 14:57:32.96,IMU,48.34,979.49,-52.25,7.37,2.96,0.04,-12.15,61.20,-7.95,29.8
2026/04/13 14:57:33.06,IMU,38.09,995.61,-125.00,21.16,-7.44,-1.25,-12.00,64.05,-11.10,29.9
2026/04/13 14:57:33.16,IMU,-0.49,994.14,-213.38,29.45,-41.39,2.98,-10.50,64.50,-13.20,29.9
2026/04/13 14:57:33.26,IMU,16.11,961.43,-185.06,21.84,10.80,-2.81,-10.80,61.80,-15.90,30.2
2026/04/13 14:57:33.36,IMU,-83.01,949.22,-229.98,41.40,-41.84,6.19,-8.25,61.80,-19.50,29.9
2026/04/13 14:57:33.46,IMU,-21.97,775.39,-749.51,3.73,-19.14,-5.88,-6.90,58.50,-23.85,29.9
2026/04/13 14:57:33.56,IMU,-61.52,1083.98,-167.48,9.53,25.88,10.21,-5.70,58.05,-24.15,30.0
2026/04/13 14:57:33.66,IMU,118.65,836.43,-272.46,40.48,13.50,-17.53,-7.80,56.70,-24.75,29.7
2026/04/13 14:57:33.76,IMU,-21.48,990.23,-459.96,39.78,2.97,-6.72,-8.40,53.40,-27.45,30.0
2026/04/13 14:57:33.86,IMU,-93.26,841.31,-462.89,77.11,0.73,-10.38,-5.25,52.05,-32.85,29.9
2026/04/13 14:57:33.96,IMU,-105.96,735.35,-624.51,93.36,2.67,-64.06,-3.00,46.95,-40.65,30.2
2026/04/13 14:57:34.06,IMU,-99.61,633.30,-666.02,69.78,-22.89,-27.18,-3.00,38.10,-45.45,29.9
2026/04/13 14:57:34.16,IMU,-91.80,445.80,-674.32,52.79,-2.33,16.31,-1.50,33.75,-48.00,29.8
2026/04/13 14:57:34.26,IMU,-252.93,496.58,-859.38,96.43,8.44,9.58,-3.45,26.55,-50.85,29.9
2026/04/13 14:57:34.36,IMU,-19.04,334.47,-955.57,47.85,5.86,-8.16,-3.00,19.80,-53.55,30.1
2026/04/13 14:57:34.46,IMU,-65.43,271.97,-1046.39,42.05,11.17,9.07,-3.15,17.70,-55.35,29.8
2026/04/13 14:57:34.56,IMU,-105.96,195.80,-956.05,22.59,18.13,3.32,-7.80,13.50,-54.30,30.0
2026/04/13 14:57:34.66,IMU,-131.35,91.80,-983.89,47.72,25.50,-12.69,-11.85,12.90,-53.10,30.0
2026/04/13 14:57:34.76,IMU,-57.62,68.36,-994.14,14.36,12.72,3.16,-13.35,10.20,-52.35,29.9
2026/04/13 14:57:34.86,IMU,21.97,-11.72,-1185.06,28.42,32.71,1.30,-17.70,9.60,-51.45,29.8
2026/04/13 14:57:34.96,IMU,-0.98,-24.41,-996.58,30.21,26.58,-3.61,-22.35,7.95,-50.85,29.7
2026/04/13 14:57:35.06,IMU,55.66,-38.09,-986.33,1.05,-10.46,3.18,-20.55,7.05,-51.15,29.9
2026/04/13 14:57:35.16,IMU,41.99,-36.62,-1047.85,-0.50,-4.73,-3.86,-21.30,7.95,-49.05,29.9
2026/04/13 14:57:35.26,IMU,23.93,-32.23,-1014.16,-1.33,-3.20,0.53,-20.10,7.50,-50.40,29.9
2026/04/13 14:57:35.36,IMU,42.97,-2.44,-980.96,0.56,-1.76,-1.27,-20.10,7.95,-49.05,29.9
2026/04/13 14:57:35.46,IMU,14.65,-36.13,-1012.70,-1.92,-5.93,2.75,-19.95,8.10,-50.25,29.9
2026/04/13 14:57:35.60,IMU,22.46,-11.72,-989.75,-0.82,-7.24,0.30,-20.10,7.95,-51.15,30.2
2026/04/13 14:57:35.70,IMU,14.65,-26.37,-1004.39,-1.50,-1.74,1.63,-19.50,7.65,-49.50,29.9
2026/04/13 14:57:35.80,IMU,19.04,-46.39,-1004.88,-0.79,-1.66,-0.65,-18.30,6.75,-50.10,29.8
2026/04/13 14:57:35.90,IMU,18.55,-27.34,-1007.32,0.35,-1.96,-2.74,-20.55,8.25,-49.80,30.2
2026/04/13 14:57:36.00,IMU,13.67,-44.43,-1011.23,-0.70,-0.85,1.69,-23.10,4.80,-45.60,29.9
2026/04/13 14:57:36.10,IMU,12.70,-31.74,-1012.70,-0.40,-1.34,-1.05,-19.20,6.90,-49.95,29.9
2026/04/13 14:57:36.21,IMU,18.07,-33.20,-1004.39,-2.20,0.49,2.02,-19.05,9.00,-50.85,29.9
2026/04/13 14:57:36.31,IMU,25.39,-31.74,-1003.91,-1.19,-0.02,1.40,-20.10,7.95,-50.10,29.9
2026/04/13 14:57:36.41,IMU,6.35,-42.97,-1004.88,-0.73,-1.95,-1.23,-19.50,7.35,-49.50,29.9
2026/04/13 14:57:36.51,IMU,26.86,-26.37,-1005.37,-2.63,-1.44,-2.40,-20.10,7.50,-49.05,29.9
2026/04/13 14:57:36.61,IMU,23.44,-37.60,-1000.49,-2.55,-4.46,5.04,-19.80,9.45,-50.85,30.0
2026/04/13 14:57:36.71,IMU,19.53,-29.79,-1003.91,0.20,-0.10,2.08,-19.80,6.30,-49.05,29.9
2026/04/13 14:57:36.81,IMU,13.18,-21.48,-997.07,-1.79,-1.06,1.05,-20.25,7.35,-50.25,29.9
2026/04/13 14:57:36.91,IMU,21.00,-32.71,-1002.93,-0.27,-0.73,-4.13,-21.00,8.10,-49.50,29.6
2026/04/13 14:57:37.01,IMU,3.91,-36.62,-1014.65,-3.12,-1.51,-0.57,-19.80,7.05,-50.40,30.1
2026/04/13 14:57:37.11,IMU,27.34,-19.53,-1009.77,-1.04,1.28,-2.82,-18.30,7.50,-49.80,29.8
2026/04/13 14:57:37.21,IMU,1.95,-48.34,-1011.72,-1.07,-0.49,-0.21,-19.95,7.65,-48.75,29.7
2026/04/13 14:57:37.31,IMU,39.06,-26.86,-1016.11,-1.86,-0.42,0.26,-19.20,6.60,-50.70,29.6
2026/04/13 14:57:37.41,IMU,36.13,-20.51,-992.68,-3.10,1.02,0.44,-19.05,6.30,-50.85,29.9
2026/04/13 14:57:37.51,IMU,10.25,-21.97,-998.54,-0.98,-1.31,-1.93,-19.20,9.30,-51.45,29.9
2026/04/13 14:57:37.61,IMU,37.60,-41.02,-971.19,0.88,-1.36,-24.18,-17.40,6.00,-52.35,29.9
2026/04/13 14:57:37.71,IMU,-34.18,65.92,-983.89,-0.98,-2.28,-13.77,-22.05,9.45,-51.90,29.8
2026/04/13 14:57:37.81,IMU,14.16,-31.25,-1007.81,-1.47,1.10,1.72,-19.50,8.10,-52.50,30.0
2026/04/13 14:57:37.91,IMU,14.16,-37.11,-1003.91,-1.11,2.31,-1.38,-19.80,8.70,-52.65,29.9
2026/04/13 14:57:38.01,IMU,14.16,-26.86,-1006.84,1.57,2.47,0.45,-20.55,8.70,-53.10,29.9
2026/04/13 14:57:38.11,IMU,13.67,-30.27,-1007.32,-2.18,0.27,-0.34,-19.95,8.55,-52.20,29.9
2026/04/13 14:57:38.21,IMU,2.93,-38.09,-1016.11,-2.62,-2.81,1.04,-20.25,8.10,-52.20,29.9
2026/04/13 14:57:38.31,IMU,-99.12,261.72,-598.63,1.28,1.13,9.21,-19.95,8.10,-50.25,29.9
2026/04/13 14:57:38.41,IMU,65.92,16.11,-1044.43,-0.97,0.62,-0.89,-21.45,9.60,-52.20,29.7
2026/04/13 14:57:38.51,IMU,10.25,-36.13,-1027.34,-0.17,-1.63,-1.82,-20.85,7.50,-53.40,29.9
2026/04/13 14:57:38.61,IMU,13.18,-15.63,-999.02,-0.63,-1.82,-1.43,-20.25,8.10,-51.75,30.0
2026/04/13 14:57:38.71,IMU,9.77,-43.95,-1009.77,-2.10,-2.56,1.15,-20.85,9.00,-52.35,29.9
2026/04/13 14:57:38.81,IMU,7.32,-42.97,-1000.00,-1.52,0.11,-0.01,-20.70,8.85,-52.20,29.6
2026/04/13 14:57:38.91,IMU,11.23,-37.11,-994.63,-0.26,-0.60,2.65,-20.10,7.50,-51.60,30.1
2026/04/13 14:57:39.01,IMU,23.93,-37.11,-1014.65,1.47,-2.40,-1.63,-20.85,8.70,-51.60,29.9
