Timestamp,Sensor,AccX,AccY,AccZ,GyrX,GyrY,GyrZ,MagX,MagY,MagZ,Temp
2026/04/13 14:56:30.00,IMU,-5.86,-964.84,-273.44,-2.82,-2.51,-4.25,11.10,-34.35,-21.90,27.5
2026/04/13 14:56:30.10,IMU,7.81,-1017.58,-279.79,-3.06,-3.68,1.36,10.65,-35.10,-21.15,27.8
2026/04/13 14:56:30.20,IMU,-16.60,-983.89,-271.97,0.02,1.11,-2.57,10.50,-33.45,-21.45,27.6
2026/04/13 14:56:30.30,IMU,-3.91,-1000.49,-296.39,-0.35,-0.63,-1.66,12.00,-33.75,-21.45,27.8
2026/04/13 14:56:30.40,IMU,-12.21,-978.52,-285.64,-1.50,-1.94,-1.50,12.60,-33.60,-20.85,27.6
2026/04/13 14:56:30.50,IMU,-4.88,-974.61,-260.25,-1.58,-0.57,-1.11,11.10,-34.35,-21.60,27.8
2026/04/13 14:56:30.60,IMU,-45.90,-968.26,-328.61,0.53,-8.92,-0.73,11.85,-35.55,-22.35,27.9
2026/04/13 14:56:30.70,IMU,6.84,-989.75,-245.12,3.97,-4.22,-10.03,11.85,-34.35,-20.10,27.9
2026/04/13 14:56:30.80,IMU,-14.65,-969.73,-239.26,-1.69,0.56,-0.36,10.35,-35.10,-20.55,27.8
2026/04/13 14:56:30.90,IMU,-28.81,-962.40,-252.44,-2.98,0.95,-1.11,11.85,-35.85,-19.80,27.7
2026/04/13 14:56:31.00,IMU,24.41,-982.91,-254.39,1.85,-3.37,-2.13,10.80,-34.95,-21.00,27.9
2026/04/13 14:56:31.10,IMU,7.81,-1001.95,-257.81,-1.11,-6.59,-1.03,10.50,-34.20,-21.00,28.0
2026/04/13 14:56:31.20,IMU,-7.32,-962.40,-259.28,-1.60,-0.26,1.31,9.75,-34.50,-21.45,27.8
2026/04/13 14:56:31.30,IMU,-28.32,-985.35,-266.60,-4.36,-4.19,0.02,12.00,-35.70,-21.45,27.8
2026/04/13 14:56:31.40,IMU,24.41,-988.77,-259.77,-2.50,1.06,0.24,9.60,-33.90,-20.85,27.9
2026/04/13 14:56:31.50,IMU,-2.44,-967.77,-265.63,0.31,-6.44,2.75,10.50,-34.50,-21.00,27.9
2026/04/13 14:56:31.61,IMU,-16.11,-977.05,-231.45,-0.85,4.74,2.69,11.40,-35.55,-20.10,27.8
2026/04/13 14:56:31.71,IMU,-3.42,-1026.86,-308.59,2.22,-0.90,5.27,11.40,-34.35,-20.55,27.6
2026/04/13 14:56:31.81,IMU,4.88,-924.80,-52.73,10.47,-0.05,11.40,11.55,-35.40,-18.75,27.8
2026/04/13 14:56:31.91,IMU,-60.55,-906.74,-233.89,-4.53,22.06,14.75,12.75,-35.70,-19.50,28.0
2026/04/13 14:56:32.01,IMU,-53.71,-1018.55,-203.61,-21.02,26.46,25.44,13.35,-35.10,-19.80,28.0
2026/04/13 14:56:32.11,IMU,23.93,-1014.16,-284.18,-15.96,33.25,-3.21,12.45,-33.45,-22.20,28.0
2026/04/13 14:56:32.21,IMU,-133.79,-1021.97,-380.37,-27.07,16.05,17.13,14.25,-33.75,-21.45,28.0
2026/04/13 14:56:32.31,IMU,-146.48,-895.51,-504.39,8.92,-8.39,22.37,14.10,-33.15,-23.40,27.9
2026/04/13 14:56:32.41,IMU,-164.06,-987.79,-385.25,20.52,-132.73,-9.73,17.40,-32.85,-21.60,28.0
2026/04/13 14:56:32.51,IMU,-281.74,-1016.11,-131.35,45.05,-99.16,-105.59,18.45,-36.90,-10.35,27.8
2026/04/13 14:56:32.61,IMU,207.03,-945.31,-289.06,-23.02,-98.93,-150.74,11.55,-39.60,-5.55,27.8
2026/04/13 14:56:32.71,IMU,579.59,-730.47,-175.78,-14.27,-97.27,-175.08,0.15,-41.40,-6.45,28.0
2026/04/13 14:56:32.81,IMU,561.04,-755.37,-312.99,2.46,-42.11,-100.05,-9.30,-39.15,-8.85,28.0
2026/04/13 14:56:32.91,IMU,403.32,-619.63,-339.36,-13.13,-69.62,-122.99,-15.00,-38.10,-8.40,28.0
2026/04/13 14:56:33.01,IMU,687.99,-344.24,-374.02,-67.63,-111.27,-115.82,-24.15,-29.55,-14.40,28.0
2026/04/13 14:56:33.11,IMU,786.13,-235.35,-708.50,-80.26,-130.60,-61.33,-23.55,-20.70,-25.65,27.8
2026/04/13 14:56:33.21,IMU,747.56,23.93,-786.13,-76.02,-148.75,-77.31,-20.55,-10.65,-34.50,27.8
2026/04/13 14:56:33.31,IMU,561.52,112.30,-1011.23,-54.40,-99.81,-68.79,-13.20,-3.00,-41.10,27.9
2026/04/13 14:56:33.41,IMU,164.06,164.55,-1072.27,-27.55,-149.09,-41.24,-4.65,2.85,-43.50,27.7
2026/04/13 14:56:33.51,IMU,7.81,120.12,-1118.16,68.79,-123.02,-43.54,9.30,3.00,-43.95,28.1
2026/04/13 14:56:33.61,IMU,-480.47,-83.50,-1198.73,144.30,-86.48,-4.99,18.00,-4.95,-42.00,27.9
2026/04/13 14:56:33.71,IMU,-472.17,-280.76,-943.85,192.75,-2.49,-19.88,21.30,-17.70,-33.00,28.0
2026/04/13 14:56:33.81,IMU,-243.16,-547.36,-827.15,178.71,33.79,-12.66,19.80,-29.25,-21.60,27.9
2026/04/13 14:56:33.91,IMU,-225.10,-675.78,-687.99,211.41,58.60,21.00,18.00,-37.65,-9.60,27.8
2026/04/13 14:56:34.01,IMU,-158.69,-711.91,-171.39,182.91,115.55,32.92,16.20,-41.10,6.90,28.3
2026/04/13 14:56:34.11,IMU,-192.87,-1120.12,-164.06,100.57,85.71,3.75,19.35,-37.50,13.80,27.9
2026/04/13 14:56:34.21,IMU,-236.33,-834.47,62.01,40.70,250.13,2.03,25.80,-35.10,15.30,28.0
2026/04/13 14:56:34.31,IMU,-416.99,-857.91,-51.76,171.51,250.13,47.95,28.05,-35.55,4.50,27.8
2026/04/13 14:56:34.41,IMU,-458.98,-920.41,-279.30,39.62,201.98,4.34,28.20,-33.45,-2.55,27.7
2026/04/13 14:56:34.51,IMU,-83.01,-1096.19,-124.51,56.84,241.48,-37.57,24.90,-36.90,-4.35,28.1
2026/04/13 14:56:34.61,IMU,-155.76,-1051.27,-321.78,49.58,250.13,-14.34,16.20,-38.10,-9.90,28.1
2026/04/13 14:56:34.71,IMU,-188.48,-865.23,196.78,100.36,85.49,35.20,13.95,-40.35,-5.10,28.0
2026/04/13 14:56:34.81,IMU,-354.49,-902.34,267.09,53.02,85.13,15.30,13.20,-41.55,-1.35,28.1
2026/04/13 14:56:34.91,IMU,-184.08,-988.28,85.94,30.79,182.54,-35.33,13.65,-40.95,0.15,28.1
2026/04/13 14:56:35.01,IMU,-386.72,-1006.35,269.53,44.76,174.79,-68.95,8.10,-42.60,0.90,27.9
2026/04/13 14:56:35.11,IMU,-372.07,-996.58,180.18,6.71,104.61,27.60,4.95,-42.90,1.95,28.0
2026/04/13 14:56:35.21,IMU,-434.57,-930.66,149.41,-5.47,157.47,-4.18,4.95,-42.60,1.20,28.0
2026/04/13 14:56:35.31,IMU,-342.77,-850.10,-105.96,11.18,154.31,20.98,5.70,-41.40,0.90,28.0
2026/04/13 14:56:35.41,IMU,-415.04,-947.27,-151.37,4.63,171.31,62.05,7.50,-43.05,1.05,28.0
2026/04/13 14:56:35.51,IMU,-527.83,-877.93,-253.42,-50.43,103.05,74.19,11.55,-40.35,-4.05,28.1
2026/04/13 14:56:35.61,IMU,-641.60,-693.36,-611.82,-57.18,107.26,46.11,13.50,-38.40,-9.90,28.0
2026/04/13 14:56:35.72,IMU,-540.53,-696.29,-701.17,-58.48,120.55,36.11,14.25,-36.90,-16.20,28.1
2026/04/13 14:56:35.82,IMU,-279.30,-579.10,-733.40,-73.03,149.53,18.83,7.80,-31.80,-25.05,28.0
2026/04/13 14:56:35.92,IMU,-130.86,-438.96,-858.89,-73.10,-33.18,32.07,3.45,-28.95,-30.15,28.1
2026/04/13 14:56:36.02,IMU,-304.20,-313.96,-974.61,-87.42,-24.65,47.06,9.00,-22.50,-35.55,27.9
2026/04/13 14:56:36.12,IMU,-338.38,-66.41,-1014.16,-121.34,16.58,46.98,10.05,-13.95,-36.15,28.0
2026/04/13 14:56:36.22,IMU,-334.96,107.91,-942.38,-72.61,-14.97,-9.79,15.90,-4.35,-42.30,28.1
2026/04/13 14:56:36.32,IMU,-192.87,209.47,-893.07,-19.78,-8.00,21.56,17.25,1.05,-42.45,28.0
2026/04/13 14:56:36.42,IMU,-251.95,299.80,-854.49,-58.96,-5.76,21.93,14.70,4.95,-44.70,27.8
2026/04/13 14:56:36.52,IMU,-194.82,348.63,-1113.77,-65.54,56.29,78.44,14.10,11.40,-41.55,28.1
2026/04/13 14:56:36.62,IMU,-197.27,574.71,-1019.04,-52.03,0.42,-24.27,12.45,18.15,-42.15,28.0
2026/04/13 14:56:36.72,IMU,-59.08,610.35,-681.64,-76.21,-15.14,15.34,10.80,23.70,-42.15,28.1
2026/04/13 14:56:36.82,IMU,-695.80,787.11,-1699.71,-98.77,15.27,-71.02,15.60,28.50,-39.00,28.0
2026/04/13 14:56:36.92,IMU,-166.02,849.61,-208.50,-152.70,-172.19,54.03,19.50,35.40,-32.85,28.0
2026/04/13 14:56:37.02,IMU,-208.50,894.04,-287.60,-27.21,-128.69,34.18,30.30,43.65,-20.85,28.1
2026/04/13 14:56:37.12,IMU,-400.88,861.33,69.34,-40.39,-153.78,35.16,27.15,45.90,-8.40,27.7
2026/04/13 14:56:37.22,IMU,-392.09,960.94,61.52,-111.64,-175.69,-17.05,34.05,48.30,-0.15,28.0
2026/04/13 14:56:37.32,IMU,-518.55,859.38,223.63,-78.22,-142.95,5.29,33.90,47.40,13.65,27.9
2026/04/13 14:56:37.42,IMU,-230.47,760.74,412.60,-57.18,-149.73,-8.66,30.75,47.25,26.10,28.1
2026/04/13 14:56:37.52,IMU,-137.70,790.53,441.89,-14.08,-34.80,19.26,27.60,44.85,31.20,28.0
2026/04/13 14:56:37.62,IMU,-186.04,654.30,747.56,-57.76,-129.47,-2.73,24.60,42.90,38.25,28.3
2026/04/13 14:56:37.72,IMU,-150.39,591.31,779.30,-50.47,-167.16,-12.99,13.35,41.40,46.80,28.0
2026/04/13 14:56:37.82,IMU,4.88,528.32,901.86,-64.69,-112.11,-54.40,5.25,35.40,51.45,28.0
2026/04/13 14:56:37.92,IMU,177.73,337.40,1021.48,-132.28,-131.38,-83.89,0.15,28.50,52.65,28.0
2026/04/13 14:56:38.02,IMU,348.14,351.56,956.54,-95.11,-199.40,-43.47,-7.35,18.00,54.90,28.0
2026/04/13 14:56:38.13,IMU,747.07,354.00,706.05,-133.29,-250.14,18.63,-32.70,4.95,49.95,28.0
2026/04/13 14:56:38.23,IMU,953.61,42.97,297.85,-76.86,-153.19,57.78,-41.10,-1.50,30.30,28.0
2026/04/13 14:56:38.33,IMU,1019.04,-96.68,225.59,-97.88,-158.49,69.32,-42.90,-9.60,16.20,27.8
2026/04/13 14:56:38.43,IMU,1139.65,-125.00,-132.32,-96.27,-161.27,70.76,-42.15,-14.25,3.60,28.0
2026/04/13 14:56:38.53,IMU,735.35,-113.77,-461.91,-78.82,-142.03,58.99,-35.55,-18.00,-13.80,28.0
2026/04/13 14:56:38.63,IMU,526.37,-356.45,-662.11,-36.47,-72.37,84.03,-30.15,-19.80,-22.20,27.8
2026/04/13 14:56:38.73,IMU,729.49,-393.55,-751.95,-7.78,-17.73,71.12,-23.10,-22.35,-26.10,27.9
2026/04/13 14:56:38.83,IMU,416.99,-378.91,-578.61,-42.59,30.36,153.61,-15.90,-27.75,-25.35,28.0
2026/04/13 14:56:38.93,IMU,501.95,-570.31,-688.96,22.44,-26.60,114.59,-7.05,-30.60,-27.00,28.1
2026/04/13 14:56:39.03,IMU,362.79,-802.73,-658.69,82.24,10.67,118.27,1.20,-33.15,-22.35,27.6
2026/04/13 14:56:39.13,IMU,618.65,-754.39,-284.67,22.33,167.06,135.67,5.70,-36.75,-20.85,28.0
2026/04/13 14:56:39.23,IMU,426.76,-937.99,-400.88,-9.07,235.49,105.99,6.15,-35.85,-20.55,27.8
2026/04/13 14:56:39.33,IMU,169.92,-921.39,-345.21,-4.10,76.29,88.39,8.55,-36.15,-21.00,28.0
2026/04/13 14:56:39.43,IMU,-1.46,-813.96,-494.14,-89.85,35.31,74.18,14.10,-30.90,-24.15,28.2
2026/04/13 14:56:39.53,IMU,35.16,-846.19,-711.91,-107.26,54.27,62.57,15.45,-24.45,-30.60,28.0
2026/04/13 14:56:39.63,IMU,67.38,-757.32,-760.74,-47.64,67.79,82.60,14.10,-17.70,-35.25,28.0
2026/04/13 14:56:39.73,IMU,-81.05,-622.07,-739.75,-76.52,38.50,84.18,15.90,-10.65,-39.30,28.0
2026/04/13 14:56:39.83,IMU,-149.41,-517.09,-662.11,-75.99,55.13,67.47,15.60,-4.80,-42.30,27.9
2026/04/13 14:56:39.93,IMU,-116.21,-395.51,-970.70,-28.68,54.89,80.33,15.60,5.55,-42.75,28.0
2026/04/13 14:56:40.03,IMU,-294.43,-411.62,-731.93,82.52,109.50,107.70,8.55,4.95,-44.40,28.0
2026/04/13 14:56:40.13,IMU,-77.64,-488.77,-1064.45,1.36,129.79,135.40,1.65,1.35,-43.80,28.0
2026/04/13 14:56:40.23,IMU,2.93,-340.82,-988.77,15.73,56.40,111.00,-3.00,-0.75,-43.95,28.1
2026/04/13 14:56:40.33,IMU,107.42,-536.62,-1137.21,50.89,60.38,97.31,-10.50,-4.20,-42.45,27.6
2026/04/13 14:56:40.43,IMU,154.30,-550.78,-1000.00,45.82,122.00,202.26,-13.95,-12.00,-38.10,28.0
2026/04/13 14:56:40.53,IMU,-103.52,-560.55,-798.34,50.46,7.62,108.78,-8.40,-18.00,-35.70,27.9
2026/04/13 14:56:40.63,IMU,180.18,-714.84,-927.25,47.40,112.78,136.08,-10.05,-24.00,-31.05,27.9
2026/04/13 14:56:40.73,IMU,-224.61,-792.97,-604.98,15.69,55.02,89.98,-6.30,-27.60,-28.50,28.1
2026/04/13 14:56:40.84,IMU,-150.39,-667.97,-680.18,42.21,87.62,122.03,-1.50,-30.30,-27.75,28.4
2026/04/13 14:56:40.94,IMU,-193.85,-601.07,-594.73,-20.66,32.11,60.18,1.20,-30.45,-28.20,28.1
2026/04/13 14:56:41.04,IMU,-182.13,-612.79,-687.99,83.42,142.92,49.80,-0.75,-29.10,-27.00,28.2
2026/04/13 14:56:41.14,IMU,-168.95,-580.57,-682.13,-12.70,18.42,48.44,-1.50,-31.05,-26.55,28.2
2026/04/13 14:56:41.24,IMU,-225.59,-476.07,-913.57,-44.18,-16.49,72.89,3.15,-29.25,-28.65,28.0
2026/04/13 14:56:41.34,IMU,-226.56,-313.96,-930.66,-56.21,-10.72,131.63,10.80,-23.70,-32.85,28.1
2026/04/13 14:56:41.44,IMU,-351.56,-20.02,-978.03,-71.67,32.21,183.92,17.10,-17.25,-36.45,28.0
2026/04/13 14:56:41.54,IMU,-532.71,125.98,-1140.14,-130.77,15.09,45.45,20.70,-4.95,-39.90,28.0
2026/04/13 14:56:41.64,IMU,-264.16,261.72,-993.16,-74.49,56.73,41.76,21.00,4.20,-41.40,28.0
2026/04/13 14:56:41.74,IMU,-87.40,388.67,-812.99,-36.14,14.56,122.48,17.10,13.35,-43.80,28.2
2026/04/13 14:56:41.84,IMU,-101.07,482.42,-613.77,-105.09,21.35,89.03,13.65,21.90,-41.55,28.0
2026/04/13 14:56:41.94,IMU,255.37,782.71,-326.17,-128.27,-154.02,41.98,10.35,35.10,-34.95,28.0
2026/04/13 14:56:42.04,IMU,274.41,849.61,-60.06,-97.63,-102.52,67.98,18.45,45.00,-25.50,28.1
2026/04/13 14:56:42.14,IMU,253.42,989.26,40.53,-139.94,-142.69,53.63,18.30,53.40,-15.60,28.0
2026/04/13 14:56:42.24,IMU,101.07,990.72,268.07,-114.38,-152.05,71.81,19.05,56.10,-2.40,28.0
2026/04/13 14:56:42.34,IMU,159.18,963.38,122.56,-76.86,-100.11,88.77,14.10,58.50,10.05,28.0
2026/04/13 14:56:42.44,IMU,305.18,973.63,312.01,-90.47,-143.85,91.32,5.25,59.40,18.45,28.4
2026/04/13 14:56:42.54,IMU,511.23,838.87,445.31,-146.30,-52.12,105.01,-2.25,56.40,25.80,28.3
2026/04/13 14:56:42.64,IMU,906.74,755.37,311.04,-88.62,-99.01,45.33,-9.00,51.30,33.60,28.1
2026/04/13 14:56:42.74,IMU,744.14,648.93,-5.37,-43.80,-119.83,55.59,-17.85,45.30,36.45,28.4
2026/04/13 14:56:42.84,IMU,683.59,605.96,130.86,-89.65,-70.56,22.24,-25.80,42.15,33.00,28.0
2026/04/13 14:56:42.94,IMU,738.77,615.72,35.64,-66.16,-52.67,-9.30,-30.75,39.45,30.15,27.9
2026/04/13 14:56:43.04,IMU,960.94,678.22,-47.85,-149.71,-195.78,-26.28,-30.90,39.15,28.50,28.0
2026/04/13 14:56:43.14,IMU,776.37,645.02,-232.91,-98.29,-186.72,44.61,-38.85,38.10,15.15,28.3
2026/04/13 14:56:43.24,IMU,846.19,480.47,-246.09,-96.41,-160.17,66.56,-41.25,33.60,6.00,28.1
2026/04/13 14:56:43.34,IMU,810.55,479.98,-370.61,-98.26,-145.50,129.11,-42.45,27.00,0.15,28.0
2026/04/13 14:56:43.44,IMU,997.56,284.67,-468.26,-74.43,-104.74,124.53,-44.70,17.70,-10.05,28.4
2026/04/13 14:56:43.54,IMU,896.97,205.08,-718.75,-32.57,-66.18,134.94,-41.25,9.45,-17.55,27.9
2026/04/13 14:56:43.64,IMU,666.99,83.98,-694.34,-12.04,-34.49,149.12,-40.80,0.45,-20.55,28.2
2026/04/13 14:56:43.74,IMU,751.46,-75.20,-750.98,22.05,-9.44,131.39,-36.30,-9.00,-20.85,27.8
2026/04/13 14:56:43.84,IMU,542.48,-203.61,-764.65,52.95,-27.66,129.52,-30.45,-19.05,-20.70,27.9
2026/04/13 14:56:43.94,IMU,667.97,-516.11,-804.69,47.15,-19.65,83.59,-25.35,-24.60,-19.05,28.0
2026/04/13 14:56:44.04,IMU,521.97,-550.29,-564.45,67.33,-5.95,114.66,-17.25,-34.50,-15.45,28.0
2026/04/13 14:56:44.14,IMU,481.93,-728.03,-463.38,75.78,0.95,86.56,-10.80,-38.40,-9.90,28.2
2026/04/13 14:56:44.24,IMU,236.33,-888.18,-440.92,73.24,16.38,65.15,-3.30,-41.10,-2.85,28.2
2026/04/13 14:56:44.34,IMU,459.96,-1008.30,-259.77,7.92,20.28,48.89,1.20,-42.15,1.65,27.9
2026/04/13 14:56:44.44,IMU,592.29,-1022.46,-223.63,16.43,50.69,82.23,6.90,-42.90,4.20,28.0
2026/04/13 14:56:44.55,IMU,15.14,-1007.81,-76.66,-16.34,136.41,60.61,15.00,-40.35,3.60,27.8
2026/04/13 14:56:44.65,IMU,-170.41,-876.95,-120.61,-2.38,143.35,68.37,22.20,-38.10,1.80,28.1
2026/04/13 14:56:44.75,IMU,-152.83,-980.47,-155.76,12.85,105.87,29.24,25.35,-37.05,-1.20,28.0
2026/04/13 14:56:44.85,IMU,-254.39,-890.63,-147.46,-4.87,116.31,48.54,28.20,-33.75,-4.35,28.0
2026/04/13 14:56:44.95,IMU,-198.73,-887.70,-308.11,-7.73,162.08,40.99,27.90,-31.05,-12.15,28.0
2026/04/13 14:56:45.05,IMU,-174.80,-929.20,-346.68,1.03,250.13,34.66,24.45,-30.60,-18.75,28.1
2026/04/13 14:56:45.15,IMU,29.79,-922.36,-229.49,6.21,250.13,67.79,-9.30,-31.80,-24.00,27.9
2026/04/13 14:56:45.25,IMU,600.10,-897.46,-176.27,-11.73,119.14,-7.54,-27.60,-34.35,-6.45,28.0
2026/04/13 14:56:45.35,IMU,405.27,-934.57,-128.42,-1.44,180.20,7.99,-27.45,-31.80,-4.05,28.3
2026/04/13 14:56:45.45,IMU,358.89,-922.85,26.37,-8.41,250.13,43.36,-28.05,-32.40,8.70,28.2
2026/04/13 14:56:45.55,IMU,129.88,-959.47,192.87,-1.66,189.20,42.36,-17.25,-34.20,24.30,28.2
2026/04/13 14:56:45.65,IMU,86.43,-908.20,285.64,6.89,141.74,43.33,-7.80,-36.15,28.80,28.2
2026/04/13 14:56:45.75,IMU,-239.75,-886.23,-114.75,32.69,223.52,87.49,7.50,-38.40,25.80,28.2
2026/04/13 14:56:45.85,IMU,-311.04,-803.71,-32.71,28.85,250.13,98.63,24.45,-34.95,16.65,28.0
2026/04/13 14:56:45.95,IMU,-525.39,-795.90,-239.75,-129.01,232.16,36.05,34.20,-29.85,2.10,28.2
2026/04/13 14:56:46.05,IMU,-379.39,-669.43,-1284.67,-111.40,111.15,57.70,31.05,-27.75,-14.55,27.7
2026/04/13 14:56:46.15,IMU,-255.37,-582.52,-685.06,-77.14,-20.98,22.55,29.55,-21.45,-24.90,28.2
2026/04/13 14:56:46.25,IMU,-132.81,-397.46,-830.08,-127.93,83.91,48.05,25.80,-16.05,-24.15,28.2
2026/04/13 14:56:46.35,IMU,-55.18,-183.59,-922.36,-95.90,59.72,-11.05,26.10,-5.55,-37.95,27.9
2026/04/13 14:56:46.45,IMU,101.56,-29.30,-743.65,-98.84,51.08,13.79,21.30,3.30,-40.80,28.2
2026/04/13 14:56:46.55,IMU,-26.86,152.34,-1013.18,-97.89,-71.93,20.69,19.20,9.30,-43.65,28.0
2026/04/13 14:56:46.65,IMU,-312.01,322.27,-1036.62,-160.53,-52.74,54.85,22.35,19.95,-38.55,28.2
2026/04/13 14:56:46.75,IMU,-365.23,524.41,-830.57,-140.55,-53.18,70.44,23.70,29.55,-34.35,28.0
2026/04/13 14:56:46.85,IMU,-440.92,804.69,-733.40,-222.83,-91.08,111.18,25.80,38.25,-27.15,28.2
2026/04/13 14:56:46.95,IMU,-336.43,837.89,-492.19,-126.34,-52.71,117.24,24.15,51.30,-9.15,28.2
2026/04/13 14:56:47.05,IMU,32.23,1128.42,-452.15,-111.71,-69.89,95.18,16.20,57.15,0.00,27.9
2026/04/13 14:56:47.15,IMU,183.59,1212.89,-466.80,-90.92,-106.89,24.02,7.80,59.10,11.10,28.0
2026/04/13 14:56:47.26,IMU,417.97,895.51,-387.21,-26.07,-103.01,61.09,3.75,59.10,17.40,28.2
2026/04/13 14:56:47.36,IMU,587.40,1345.70,-447.27,12.82,-87.68,31.81,-4.05,55.50,22.95,28.2
2026/04/13 14:56:47.46,IMU,558.59,831.05,89.36,-30.50,-106.52,19.69,-7.65,55.05,22.35,28.4
2026/04/13 14:56:47.56,IMU,364.75,883.79,28.32,-56.34,-115.62,53.21,-14.70,53.55,25.05,28.0
2026/04/13 14:56:47.66,IMU,394.53,857.42,275.88,-73.74,-216.47,19.59,-19.35,49.95,26.70,28.2
2026/04/13 14:56:47.76,IMU,624.51,749.02,62.50,-127.49,-246.64,59.03,-27.90,45.00,22.50,28.0
2026/04/13 14:56:47.86,IMU,643.07,661.13,-161.13,-47.18,-226.47,115.36,-37.80,39.00,12.00,28.3
2026/04/13 14:56:47.96,IMU,973.63,640.63,-193.85,0.02,-250.14,125.98,-42.45,29.25,-5.70,28.0
2026/04/13 14:56:48.06,IMU,775.39,490.23,-525.39,-5.42,-55.40,110.01,-39.00,17.25,-17.10,28.1
2026/04/13 14:56:48.16,IMU,844.73,251.95,-620.12,8.27,-21.83,111.88,-40.05,8.25,-20.55,28.1
2026/04/13 14:56:48.26,IMU,857.91,147.46,-563.48,16.45,-2.37,125.72,-38.85,-2.25,-21.45,28.1
2026/04/13 14:56:48.36,IMU,724.61,-25.39,-588.38,22.21,8.89,126.16,-37.65,-11.25,-20.25,28.4
2026/04/13 14:56:48.46,IMU,785.16,-226.56,-567.38,21.25,-5.56,78.69,-31.80,-19.50,-18.60,27.9
2026/04/13 14:56:48.56,IMU,674.80,-387.21,-532.23,27.82,22.21,98.78,-26.70,-25.95,-16.20,27.9
2026/04/13 14:56:48.66,IMU,692.87,-580.57,-530.27,25.53,26.11,84.72,-24.60,-29.70,-14.85,27.8
2026/04/13 14:56:48.76,IMU,663.09,-687.01,-509.28,27.53,36.89,104.49,-18.45,-35.70,-9.15,28.0
2026/04/13 14:56:48.86,IMU,418.95,-720.21,-390.63,36.24,28.21,119.76,-10.65,-40.65,-7.50,28.3
2026/04/13 14:56:48.97,IMU,454.59,-858.89,-219.73,20.92,60.06,93.94,-1.95,-41.40,-2.70,28.2
2026/04/13 14:56:49.07,IMU,380.86,-939.45,-214.84,-1.78,66.31,89.59,4.05,-41.10,-2.55,28.0
2026/04/13 14:56:49.17,IMU,328.61,-1016.60,-158.20,3.17,106.05,69.42,7.05,-43.05,-4.35,28.0
2026/04/13 14:56:49.27,IMU,250.98,-997.07,-168.95,4.15,239.98,46.65,10.05,-40.05,-4.35,28.0
2026/04/13 14:56:49.37,IMU,-9.77,-910.64,-255.37,-4.47,250.13,19.68,8.40,-39.45,-9.00,28.3
2026/04/13 14:56:49.47,IMU,44.43,-989.26,110.84,-31.37,250.13,27.56,-6.30,-40.35,-6.90,28.0
2026/04/13 14:56:49.57,IMU,-140.63,-1046.88,17.58,4.97,250.13,39.62,-12.75,-40.80,-0.30,28.1
2026/04/13 14:56:49.67,IMU,-59.08,-1043.46,86.43,-4.91,162.73,20.44,-10.35,-41.40,7.20,28.1
2026/04/13 14:56:49.77,IMU,-127.44,-1029.30,-79.10,-2.67,216.87,48.39,-5.40,-42.60,9.00,28.3
2026/04/13 14:56:49.87,IMU,-290.04,-931.64,-260.25,-41.25,250.13,89.86,3.30,-41.55,12.15,28.2
2026/04/13 14:56:49.97,IMU,-187.99,-845.21,-457.03,-74.56,250.13,45.79,11.40,-41.70,4.20,28.2
2026/04/13 14:56:50.07,IMU,188.48,-873.05,-538.09,-59.25,250.13,17.76,4.05,-39.15,-9.60,28.2
2026/04/13 14:56:50.17,IMU,489.26,-898.93,-371.09,-40.42,250.13,-21.80,-7.05,-38.40,-11.10,27.9
2026/04/13 14:56:50.27,IMU,557.62,-832.52,42.48,20.02,250.13,-102.79,-20.70,-36.90,-1.80,28.2
2026/04/13 14:56:50.37,IMU,409.67,-637.70,665.53,-1.03,168.19,-138.53,-28.05,-31.65,11.55,28.1
2026/04/13 14:56:50.47,IMU,960.94,-521.48,237.30,7.47,127.15,-105.45,-36.90,-22.95,13.65,28.1
2026/04/13 14:56:50.57,IMU,693.36,-276.37,517.09,38.07,91.21,-155.54,-40.50,-12.15,24.15,28.3
2026/04/13 14:56:50.67,IMU,879.88,-50.29,948.24,-7.85,132.08,-119.85,-41.25,-3.00,29.25,27.8
2026/04/13 14:56:50.77,IMU,771.48,-64.45,696.78,29.53,151.93,-122.34,-38.85,4.65,35.85,28.2
2026/04/13 14:56:50.87,IMU,548.83,171.88,1144.53,-17.18,40.64,-123.05,-34.05,16.80,39.75,27.9
2026/04/13 14:56:50.97,IMU,378.42,364.26,922.36,38.24,37.85,-77.61,-30.30,26.25,42.30,27.9
2026/04/13 14:56:51.07,IMU,150.88,708.50,646.00,74.66,-250.14,-61.44,-30.45,33.00,36.90,28.2
2026/04/13 14:56:51.17,IMU,918.95,703.61,-140.63,9.22,-250.14,-69.11,-34.50,41.70,-4.20,28.0
2026/04/13 14:56:51.27,IMU,643.55,850.59,-688.48,-106.43,101.21,4.07,-6.90,45.60,-26.40,28.2
2026/04/13 14:56:51.37,IMU,477.05,499.02,-749.51,-109.74,-250.14,-30.12,-2.55,52.05,-20.70,28.0
2026/04/13 14:56:51.47,IMU,204.10,1051.76,-678.71,-209.24,-242.31,-1.56,9.00,55.50,-8.85,28.0
2026/04/13 14:56:51.57,IMU,212.89,1002.44,-76.17,-176.66,-145.29,19.82,7.35,59.25,7.95,28.2
2026/04/13 14:56:51.67,IMU,336.91,960.45,13.67,-162.05,-70.40,50.76,6.00,58.65,20.25,28.0
2026/04/13 14:56:51.77,IMU,50.78,820.31,431.64,-235.35,37.79,77.69,-1.65,52.20,34.20,28.4
2026/04/13 14:56:51.87,IMU,500.49,660.64,609.86,-194.06,17.52,14.35,-3.90,41.40,46.80,28.1
2026/04/13 14:56:51.97,IMU,410.16,296.88,759.77,-177.12,-5.23,15.86,-3.15,22.35,54.90,28.1
2026/04/13 14:56:52.07,IMU,380.86,102.05,917.97,-146.52,24.11,-56.84,-0.75,9.60,57.30,28.1
2026/04/13 14:56:52.17,IMU,310.55,-279.30,1444.82,-109.85,48.79,-33.98,2.40,-0.90,56.40,28.1
2026/04/13 14:56:52.27,IMU,345.21,-181.64,864.26,-135.21,-8.29,-34.56,3.30,-13.50,51.45,28.0
2026/04/13 14:56:52.37,IMU,292.48,-491.21,881.84,-124.79,14.55,6.82,3.15,-21.90,45.60,28.0
2026/04/13 14:56:52.47,IMU,383.79,-610.84,716.80,-196.32,38.06,-99.68,0.75,-32.25,34.80,28.0
2026/04/13 14:56:52.57,IMU,-25.88,-817.38,551.76,-135.41,30.61,-9.05,-0.15,-40.65,21.90,28.0
2026/04/13 14:56:52.67,IMU,251.95,-1022.46,443.85,-172.06,76.58,-59.25,-1.05,-42.30,10.65,28.1
2026/04/13 14:56:52.78,IMU,-147.46,-561.04,-478.03,119.94,250.13,-123.89,-4.20,-43.65,0.45,28.3
2026/04/13 14:56:52.88,IMU,224.61,-1295.90,689.94,-79.35,248.47,111.45,-11.40,-40.20,6.75,28.3
2026/04/13 14:56:52.98,IMU,1312.50,-1219.24,-1728.03,0.74,250.13,-216.71,-3.15,-40.65,2.70,28.2
2026/04/13 14:56:53.08,IMU,274.41,-873.54,836.43,-2.06,29.11,-78.53,-17.40,-39.00,6.00,28.3
2026/04/13 14:56:53.18,IMU,-392.58,-888.67,463.87,180.69,102.64,-92.24,-20.55,-37.05,6.45,28.2
2026/04/13 14:56:53.28,IMU,459.47,-983.40,1051.27,9.99,235.94,119.78,-30.90,-27.90,16.95,28.2
2026/04/13 14:56:53.38,IMU,-174.80,-1039.06,737.30,-2.47,-250.14,-70.88,-28.65,-31.05,16.65,28.2
2026/04/13 14:56:53.48,IMU,353.03,-699.71,-341.31,-69.15,-190.88,-5.31,-24.90,-23.25,-20.70,28.4
2026/04/13 14:56:53.58,IMU,919.43,-866.70,-122.56,60.05,10.00,7.33,-22.20,-27.15,-21.75,27.8
2026/04/13 14:56:53.68,IMU,448.73,-956.05,-85.94,16.28,-63.04,-26.18,-22.05,-27.00,-19.80,28.4
2026/04/13 14:56:53.78,IMU,384.77,-549.80,-690.43,-101.02,-177.18,-151.22,-16.35,-17.70,-31.35,28.3
2026/04/13 14:56:53.88,IMU,172.85,-324.22,-797.36,-162.72,-250.14,-172.79,-3.15,-5.55,-42.30,28.2
2026/04/13 14:56:53.98,IMU,-491.70,100.10,-1067.87,-111.69,-166.06,-59.24,23.25,9.30,-40.65,28.1
2026/04/13 14:56:54.08,IMU,-512.70,398.93,-723.63,-122.89,-32.30,-11.07,28.95,17.10,-35.85,28.0
2026/04/13 14:56:54.18,IMU,-1071.29,230.96,-600.59,-160.11,-44.71,-45.71,31.80,25.05,-31.20,28.2
2026/04/13 14:56:54.28,IMU,-213.87,537.11,-1027.83,-50.39,-12.88,-80.95,34.05,29.25,-27.45,28.3
2026/04/13 14:56:54.38,IMU,-324.71,229.49,-747.07,103.05,201.41,99.80,28.80,29.25,-27.15,28.2
2026/04/13 14:56:54.48,IMU,388.18,492.68,-1132.81,70.47,198.97,212.47,2.25,28.65,-40.35,28.0
2026/04/13 14:56:54.58,IMU,1318.85,547.85,-738.28,-24.23,250.13,234.46,-12.90,25.35,-39.30,28.2
2026/04/13 14:56:54.68,IMU,1055.66,57.62,139.16,-122.76,193.01,116.64,-45.15,14.25,-7.35,28.0
2026/04/13 14:56:54.78,IMU,841.80,-336.91,-10.25,-57.37,214.07,180.91,-46.50,2.10,10.80,28.4
2026/04/13 14:56:54.88,IMU,272.46,-585.45,395.02,-156.11,60.52,23.50,-41.25,-10.95,24.90,28.2
2026/04/13 14:56:54.98,IMU,1025.88,-494.63,127.93,131.38,-157.66,44.40,-37.35,-18.15,25.50,28.3
2026/04/13 14:56:55.08,IMU,-589.84,-889.65,473.63,-63.52,198.59,196.97,-29.70,-27.90,22.20,28.1
2026/04/13 14:56:55.18,IMU,606.45,-798.83,157.71,-9.90,-67.85,-110.50,-30.45,-28.65,19.20,28.4
2026/04/13 14:56:55.28,IMU,833.50,-836.91,414.55,-13.08,34.96,-20.66,-33.15,-25.65,18.00,28.2
2026/04/13 14:56:55.38,IMU,224.12,-872.56,711.43,33.07,157.95,17.73,-32.40,-28.65,29.25,28.4
2026/04/13 14:56:55.48,IMU,432.13,-817.38,234.38,-14.18,237.20,66.36,-19.95,-28.35,32.55,28.2
2026/04/13 14:56:55.58,IMU,-1129.39,-884.28,37.11,8.49,250.13,54.62,14.25,-31.05,35.55,28.4
2026/04/13 14:56:55.68,IMU,-495.12,-958.01,-753.42,-151.37,250.13,14.84,31.50,-32.85,5.25,28.3
2026/04/13 14:56:55.78,IMU,-77.64,-909.18,-971.68,-78.47,250.13,-20.82,26.70,-33.00,-9.90,28.3
2026/04/13 14:56:55.88,IMU,196.78,-680.18,-648.44,-49.22,203.90,0.35,15.75,-30.60,-22.95,28.2
2026/04/13 14:56:55.98,IMU,461.91,-695.31,-758.79,-72.82,237.53,-10.40,6.15,-27.30,-29.70,28.3
2026/04/13 14:56:56.08,IMU,897.46,-701.17,-803.22,-46.53,169.75,-50.97,-8.40,-24.30,-32.40,28.0
2026/04/13 14:56:56.18,IMU,778.32,-364.26,-307.13,-107.44,250.13,-124.91,-21.30,-18.45,-31.20,28.0
2026/04/13 14:56:56.28,IMU,1348.63,-245.61,-52.25,-24.41,219.24,-117.20,-40.35,-4.65,-16.65,28.1
2026/04/13 14:56:56.39,IMU,974.61,-45.90,525.39,8.46,146.11,-104.31,-52.50,2.10,4.50,28.1
2026/04/13 14:56:56.49,IMU,1247.07,210.94,419.43,10.31,134.20,-104.15,-47.70,18.45,12.75,28.0
2026/04/13 14:56:56.59,IMU,878.91,376.95,679.20,13.26,101.95,-108.37,-43.35,29.85,19.50,28.1
2026/04/13 14:56:56.69,IMU,487.79,682.62,790.04,63.76,-7.83,-152.50,-32.70,43.05,19.50,28.4
2026/04/13 14:56:56.79,IMU,434.57,1051.76,788.57,141.63,-120.39,-69.50,-19.80,53.40,13.05,28.3
2026/04/13 14:56:56.89,IMU,59.08,1269.53,1200.68,132.69,-122.39,-99.76,-9.60,58.50,7.50,28.4
2026/04/13 14:56:56.99,IMU,-75.20,1012.70,102.54,97.14,-165.62,-175.84,5.25,59.10,-0.60,28.2
2026/04/13 14:56:57.09,IMU,-221.68,1034.18,305.66,46.47,-250.14,-176.98,22.05,54.60,-2.40,28.3
2026/04/13 14:56:57.19,IMU,-368.16,666.99,459.47,-50.22,-47.39,-116.98,36.90,45.00,4.35,28.0
2026/04/13 14:56:57.29,IMU,-955.08,620.61,297.36,59.25,-60.78,-197.91,44.10,34.95,6.90,28.0
2026/04/13 14:56:57.39,IMU,-807.13,524.41,409.18,51.65,0.19,-114.05,50.25,24.30,9.00,28.0
2026/04/13 14:56:57.49,IMU,-983.40,274.41,167.97,57.10,28.16,-130.76,52.05,14.25,6.90,28.3
2026/04/13 14:56:57.59,IMU,-1115.23,135.74,246.09,78.78,77.08,-156.38,51.60,1.50,3.60,28.2
2026/04/13 14:56:57.69,IMU,-1096.19,-186.04,131.35,64.66,139.69,-114.97,48.60,-10.05,-3.60,28.0
2026/04/13 14:56:57.80,IMU,-802.25,-276.86,6.84,59.60,138.37,-117.22,38.85,-22.05,-12.15,28.1
2026/04/13 14:56:57.90,IMU,-826.17,-594.73,-141.60,42.72,112.32,-99.11,28.05,-30.45,-16.80,28.0
2026/04/13 14:56:58.00,IMU,-559.08,-748.54,-465.82,47.56,116.41,-69.23,18.45,-32.55,-17.70,28.2
2026/04/13 14:56:58.10,IMU,-429.20,-826.17,-355.47,41.05,173.80,-70.79,7.05,-38.10,-18.00,28.1
2026/04/13 14:56:58.20,IMU,-208.98,-889.65,-526.86,18.19,250.13,8.51,-4.95,-37.50,-14.55,28.4
2026/04/13 14:56:58.30,IMU,323.24,-744.63,-855.47,11.31,250.13,67.75,-12.00,-39.15,-8.85,28.3
2026/04/13 14:56:58.40,IMU,338.38,-791.50,-527.83,-147.11,250.13,96.17,-12.00,-37.65,-6.60,28.2
2026/04/13 14:56:58.50,IMU,544.92,-415.04,-186.52,-186.65,171.06,50.95,-11.85,-37.80,-12.00,28.0
2026/04/13 14:56:58.60,IMU,697.75,-354.00,-557.13,-223.00,137.97,-17.63,-16.50,-28.65,-21.45,28.3
2026/04/13 14:56:58.70,IMU,822.75,-328.13,-655.27,-129.78,90.34,-25.33,-22.35,-22.65,-25.65,28.1
2026/04/13 14:56:58.80,IMU,652.34,-228.03,-831.54,-221.59,99.83,0.18,-25.65,-16.20,-27.75,28.3
2026/04/13 14:56:58.90,IMU,1051.76,-143.07,-437.01,-117.60,123.27,21.92,-29.10,-10.65,-29.40,28.1
2026/04/13 14:56:59.00,IMU,1074.71,-132.32,-491.70,-122.66,95.40,27.82,-32.40,-6.15,-27.75,28.0
2026/04/13 14:56:59.10,IMU,1003.91,-134.77,-257.32,-103.40,155.34,32.08,-37.50,-2.85,-23.40,28.2
2026/04/13 14:56:59.20,IMU,1110.84,-127.44,-187.99,-97.21,29.92,-1.47,-42.45,2.10,-18.30,28.2
2026/04/13 14:56:59.30,IMU,901.86,-159.67,-181.64,-106.63,50.56,19.26,-43.65,2.70,-16.20,27.8
2026/04/13 14:56:59.40,IMU,1060.55,-180.18,-211.43,-52.21,65.34,34.83,-45.45,5.55,-12.00,28.0
2026/04/13 14:56:59.50,IMU,986.33,-209.47,20.51,-81.63,51.01,-60.54,-48.30,7.65,-5.10,28.1
2026/04/13 14:56:59.60,IMU,1092.29,-153.32,15.14,-33.66,-93.89,14.11,-48.60,11.25,-7.35,28.4
2026/04/13 14:56:59.70,IMU,612.79,-213.87,476.56,-239.62,250.13,129.90,-47.40,8.85,-5.55,28.3
2026/04/13 14:56:59.80,IMU,660.16,-360.35,279.30,-27.22,34.78,-40.56,-49.05,6.90,11.10,28.3
2026/04/13 14:56:59.90,IMU,1046.88,164.55,1165.53,-40.53,66.06,-5.56,-45.90,15.45,19.95,28.0
2026/04/13 14:57:00.00,IMU,860.35,-243.16,650.39,-250.14,-197.78,67.31,-45.60,8.55,18.75,28.0
2026/04/13 14:57:00.10,IMU,917.97,-465.33,-606.45,-247.89,-250.14,123.67,-40.50,3.30,-18.30,28.0
2026/04/13 14:57:00.20,IMU,591.80,-585.45,-989.75,75.89,250.13,60.76,-31.80,0.90,-29.40,28.0
2026/04/13 14:57:00.30,IMU,670.90,-511.72,-233.40,-79.24,68.32,93.21,-43.50,-7.95,-10.80,28.3
2026/04/13 14:57:00.40,IMU,396.00,-531.74,-547.85,-99.69,-148.02,47.93,-38.10,-9.60,-16.95,28.3
2026/04/13 14:57:00.50,IMU,58.11,-460.45,-942.87,-117.40,-250.14,133.24,-21.30,-6.30,-37.50,28.2
2026/04/13 14:57:00.60,IMU,-380.86,-344.73,-837.89,-18.29,-142.49,156.20,10.50,-3.45,-42.90,28.1
2026/04/13 14:57:00.70,IMU,-465.82,-126.95,-1121.09,-65.25,26.48,170.62,13.65,6.75,-42.30,28.3
2026/04/13 14:57:00.80,IMU,-293.46,105.96,-867.68,-47.27,35.56,163.73,7.50,15.90,-43.95,28.1
2026/04/13 14:57:00.90,IMU,-884.77,315.43,-998.05,-50.92,-56.18,98.37,3.00,25.20,-41.70,28.4
2026/04/13 14:57:01.00,IMU,-93.26,577.64,-447.27,-34.04,-21.03,149.08,7.35,30.90,-40.50,28.1
2026/04/13 14:57:01.10,IMU,-404.79,614.26,-478.52,-140.63,-106.89,122.12,6.30,40.05,-37.35,28.4
2026/04/13 14:57:01.20,IMU,-327.64,1136.23,-245.12,-221.91,-74.40,120.90,4.20,48.75,-29.40,28.3
2026/04/13 14:57:01.30,IMU,-391.11,951.66,-206.05,-213.91,102.34,-24.42,-0.75,58.65,-6.15,28.0
2026/04/13 14:57:01.40,IMU,-234.38,1028.32,362.79,-143.23,-109.25,-19.62,3.75,61.05,9.60,27.9
2026/04/13 14:57:01.51,IMU,-638.67,690.92,300.29,-22.81,-12.85,-90.80,3.15,60.00,21.60,28.1
2026/04/13 14:57:01.61,IMU,-734.86,1030.27,588.87,93.02,236.82,-218.67,15.45,58.35,19.95,27.9
2026/04/13 14:57:01.71,IMU,-212.40,439.45,340.82,-138.17,144.64,-91.57,31.20,50.10,18.75,28.0
2026/04/13 14:57:01.81,IMU,-801.76,470.70,476.56,-55.43,164.82,-63.25,39.75,43.65,17.85,28.0
2026/04/13 14:57:01.91,IMU,-1438.96,417.97,166.50,-102.72,88.72,-95.69,45.45,36.30,8.25,28.0
2026/04/13 14:57:02.01,IMU,-702.64,-9.77,342.29,-21.50,68.93,-124.69,48.60,27.60,13.65,28.0
2026/04/13 14:57:02.11,IMU,-709.47,-126.95,527.83,76.08,-23.76,-203.61,51.75,16.05,10.50,28.3
2026/04/13 14:57:02.21,IMU,-999.51,-478.03,48.34,20.27,21.22,-61.13,52.80,0.75,3.60,28.1
2026/04/13 14:57:02.31,IMU,-708.01,-552.25,-99.61,-131.31,113.17,-250.14,48.30,-11.25,-2.10,28.2
2026/04/13 14:57:02.41,IMU,-629.88,-767.58,73.24,-69.30,-27.85,-214.08,40.05,-22.35,-6.45,28.4
2026/04/13 14:57:02.51,IMU,-612.30,-882.81,-360.35,20.99,-86.04,-250.14,30.45,-29.10,-9.60,28.3
2026/04/13 14:57:02.61,IMU,878.91,-1239.75,-730.96,250.13,-39.76,-62.80,16.20,-40.80,5.85,28.2
2026/04/13 14:57:02.71,IMU,380.86,-336.91,1327.64,-8.46,114.47,49.47,16.65,-29.70,35.25,28.0
2026/04/13 14:57:02.81,IMU,-73.24,-1011.72,354.98,-48.56,-167.89,-127.16,14.40,-31.65,31.95,28.2
2026/04/13 14:57:02.91,IMU,491.21,-870.61,511.23,-17.02,-49.55,-77.40,-0.15,-34.35,29.40,28.2
2026/04/13 14:57:03.01,IMU,490.23,-654.30,236.33,24.16,-139.38,-106.13,-8.85,-33.90,30.90,28.2
2026/04/13 14:57:03.11,IMU,1334.96,-615.23,59.08,-74.99,-250.14,-27.48,-35.40,-20.10,22.50,28.3
2026/04/13 14:57:03.21,IMU,714.36,-251.46,-443.36,-52.76,-125.03,-74.62,-38.25,-20.40,-0.90,28.0
2026/04/13 14:57:03.31,IMU,744.14,-248.54,-588.38,-49.95,-16.28,-28.18,-38.85,-15.90,-11.10,27.9
2026/04/13 14:57:03.41,IMU,664.06,-65.92,-513.18,-53.42,-20.21,-3.56,-41.25,-11.40,-13.50,28.2
2026/04/13 14:57:03.51,IMU,904.30,181.15,-521.48,-124.24,26.55,-44.53,-44.70,-3.60,-15.60,28.2
2026/04/13 14:57:03.61,IMU,1067.87,-605.47,-861.82,-59.96,67.91,-52.31,-45.00,6.00,-17.55,28.4
2026/04/13 14:57:03.71,IMU,1079.10,636.72,-1792.97,-225.00,-90.86,147.50,-44.85,14.70,-18.00,28.1
2026/04/13 14:57:03.81,IMU,1088.87,627.44,-551.76,-195.24,47.64,-37.05,-46.20,19.20,-15.30,28.2
2026/04/13 14:57:03.91,IMU,1283.69,880.37,91.31,-250.14,161.02,-19.92,-47.70,22.65,-12.75,28.1
2026/04/13 14:57:04.01,IMU,886.23,437.99,1142.09,-12.66,-133.24,80.05,-48.45,26.25,4.20,28.0
2026/04/13 14:57:04.11,IMU,1048.83,403.81,-414.55,185.50,-250.14,49.64,-49.05,21.30,-4.80,28.2
2026/04/13 14:57:04.21,IMU,893.55,582.52,-236.82,-241.31,35.45,119.66,-7.80,1.50,-45.90,28.0
2026/04/13 14:57:04.31,IMU,910.16,909.18,-662.60,238.62,-250.14,-250.14,-9.60,9.45,-44.25,28.3
2026/04/13 14:57:04.41,IMU,25.88,166.02,-544.92,116.96,-250.14,-50.85,4.95,6.30,-43.50,28.0
2026/04/13 14:57:04.51,IMU,-670.41,234.38,-664.06,1.95,-250.14,-13.24,43.35,0.30,-13.20,28.0
2026/04/13 14:57:04.61,IMU,-858.89,149.41,-83.98,-48.00,-154.09,18.54,51.45,1.65,5.70,28.0
2026/04/13 14:57:04.71,IMU,-903.81,255.86,33.20,-99.90,4.79,68.34,50.85,1.50,15.45,28.3
2026/04/13 14:57:04.81,IMU,-1436.52,217.29,-1.95,-50.57,-151.99,7.28,51.00,4.35,17.10,28.2
2026/04/13 14:57:04.91,IMU,-406.25,164.55,894.04,43.64,-20.56,98.60,38.55,3.30,41.25,28.0
2026/04/13 14:57:05.01,IMU,-358.40,217.29,860.35,-59.56,-248.56,144.90,34.20,7.65,43.65,28.1
2026/04/13 14:57:05.11,IMU,-273.93,208.50,1021.97,-55.42,-90.72,-1.57,24.30,7.95,52.65,28.2
2026/04/13 14:57:05.21,IMU,236.33,128.91,726.56,-57.69,-182.15,19.53,11.85,2.10,55.35,28.3
2026/04/13 14:57:05.31,IMU,404.30,76.17,1154.30,-88.87,-185.27,51.61,-1.65,-2.10,56.70,28.2
2026/04/13 14:57:05.41,IMU,527.83,-180.18,927.73,-149.09,-120.35,95.40,-15.75,-16.20,48.75,28.4
2026/04/13 14:57:05.52,IMU,698.24,-348.63,745.12,-122.85,-164.27,130.77,-18.75,-26.40,36.60,27.8
2026/04/13 14:57:05.62,IMU,616.70,-580.08,446.78,-102.58,-53.45,117.13,-15.75,-34.50,25.80,28.1
2026/04/13 14:57:05.72,IMU,728.03,-812.50,249.02,-102.68,-111.26,97.58,-9.90,-39.75,17.10,28.0
2026/04/13 14:57:05.82,IMU,107.42,-804.69,17.09,-114.97,-101.11,108.84,0.45,-41.70,6.00,27.9
2026/04/13 14:57:05.92,IMU,275.39,-975.10,-52.73,-93.19,-179.63,31.56,2.70,-42.60,-3.45,28.2
2026/04/13 14:57:06.02,IMU,243.16,-924.80,-600.10,-96.42,-101.67,-68.60,8.10,-39.00,-9.75,28.0
2026/04/13 14:57:06.12,IMU,104.00,-789.06,-186.52,-98.93,-93.14,-65.84,10.65,-37.05,-14.25,28.1
2026/04/13 14:57:06.22,IMU,28.81,-612.30,-761.72,-167.82,-91.97,14.56,14.10,-32.40,-22.65,28.2
2026/04/13 14:57:06.32,IMU,-479.49,-426.76,-909.67,-151.13,-50.41,-4.02,17.25,-21.30,-32.55,28.0
2026/04/13 14:57:06.42,IMU,-246.09,-104.49,-1106.45,-188.02,41.13,-29.86,17.10,-12.15,-37.95,28.2
2026/04/13 14:57:06.52,IMU,39.06,159.18,-1142.09,-145.60,13.05,-42.98,13.65,0.90,-42.30,28.2
2026/04/13 14:57:06.62,IMU,-137.70,416.99,-641.11,-111.01,-12.63,-54.65,13.95,10.50,-44.40,28.2
2026/04/13 14:57:06.72,IMU,44.43,530.27,-1257.81,-154.82,70.39,-68.15,11.85,20.70,-42.00,28.2
2026/04/13 14:57:06.82,IMU,-166.02,643.55,-906.25,-116.57,106.85,-61.24,8.25,29.85,-39.15,28.3
2026/04/13 14:57:06.92,IMU,314.94,767.09,-625.00,-92.92,150.33,-24.15,3.75,38.10,-35.55,28.4
2026/04/13 14:57:07.02,IMU,-184.57,685.06,-653.81,-6.79,57.42,-14.06,-8.25,43.50,-27.75,28.0
2026/04/13 14:57:07.13,IMU,84.96,805.18,-532.23,-11.17,47.08,21.14,-13.65,44.10,-25.65,28.4
2026/04/13 14:57:07.23,IMU,113.28,733.89,-952.64,-38.30,153.05,118.53,-21.45,42.30,-23.25,28.4
2026/04/13 14:57:07.33,IMU,583.98,803.22,-211.91,98.79,103.24,121.15,-29.85,33.90,-22.35,28.0
2026/04/13 14:57:07.43,IMU,1096.19,616.21,-343.75,124.52,68.73,199.21,-39.00,22.65,-20.10,28.2
2026/04/13 14:57:07.53,IMU,790.53,22.95,-279.30,46.29,191.31,194.21,-42.15,2.25,-17.70,28.0
2026/04/13 14:57:07.63,IMU,1046.39,-191.89,-301.27,-35.85,11.82,112.08,-41.10,-11.25,-12.15,28.2
2026/04/13 14:57:07.73,IMU,1054.69,-444.82,-57.13,-47.86,148.60,99.31,-40.35,-19.80,-4.05,28.4
2026/04/13 14:57:07.83,IMU,850.10,-534.18,-118.16,-58.43,139.89,77.49,-35.55,-24.60,-0.15,28.4
2026/04/13 14:57:07.93,IMU,1049.80,-768.07,284.18,-110.31,250.13,43.68,-31.80,-31.65,4.50,28.0
2026/04/13 14:57:08.03,IMU,642.58,-726.56,436.04,-87.79,26.70,92.69,-23.85,-34.80,14.25,28.2
2026/04/13 14:57:08.13,IMU,351.07,-824.22,-68.36,-90.40,37.99,99.64,-16.50,-39.60,8.10,28.2
2026/04/13 14:57:08.23,IMU,134.77,-877.44,243.65,-21.09,72.77,29.67,-9.00,-41.55,5.55,28.2
2026/04/13 14:57:08.33,IMU,-1.46,-904.79,476.56,17.26,173.93,35.59,-6.60,-41.40,10.50,28.3
2026/04/13 14:57:08.43,IMU,-37.60,-973.63,284.18,47.93,167.54,65.67,0.30,-42.75,15.90,28.3
2026/04/13 14:57:08.53,IMU,-515.63,-729.49,515.63,74.55,99.91,127.77,12.15,-39.75,19.80,28.0
2026/04/13 14:57:08.63,IMU,-754.39,-502.44,406.25,58.75,92.29,121.28,24.90,-33.45,20.70,28.0
2026/04/13 14:57:08.73,IMU,-908.20,-418.95,302.73,42.11,93.71,70.52,33.90,-28.65,19.50,28.4
2026/04/13 14:57:08.83,IMU,-942.87,-288.57,153.81,-0.83,88.07,94.18,43.65,-20.55,12.90,28.2
2026/04/13 14:57:08.93,IMU,-1017.58,-113.28,85.45,-9.72,48.16,85.44,46.50,-16.50,7.50,28.2
2026/04/13 14:57:09.03,IMU,-953.13,52.73,48.83,-16.79,67.09,77.01,51.00,-7.95,2.70,28.2
2026/04/13 14:57:09.13,IMU,-1043.95,166.99,108.89,-33.64,21.48,88.21,53.25,-1.35,-2.40,27.9
2026/04/13 14:57:09.23,IMU,-850.59,183.59,-237.30,-53.61,36.56,83.69,54.00,7.95,-2.40,27.9
2026/04/13 14:57:09.33,IMU,-608.40,413.09,-521.97,1.20,-1.14,105.64,52.95,13.80,-4.20,28.0
2026/04/13 14:57:09.43,IMU,-829.10,589.36,-25.88,-34.40,-54.66,51.69,51.60,24.00,-2.10,28.2
2026/04/13 14:57:09.53,IMU,-784.18,460.94,-56.15,-17.79,-63.08,78.05,51.30,27.90,2.10,28.4
2026/04/13 14:57:09.63,IMU,-599.61,846.68,478.52,-29.97,-137.65,97.76,45.90,36.90,12.45,28.2
2026/04/13 14:57:09.73,IMU,-285.64,851.07,449.22,-77.07,-209.81,78.04,37.50,42.60,26.10,28.4
2026/04/13 14:57:09.83,IMU,12.70,748.54,879.88,-137.37,-179.88,68.69,21.75,43.05,42.45,28.2
2026/04/13 14:57:09.93,IMU,166.99,770.51,657.71,-25.68,-101.44,60.55,9.30,39.15,48.75,28.0
2026/04/13 14:57:10.03,IMU,421.88,642.58,827.64,-53.76,-17.92,71.11,2.40,37.80,50.85,27.8
2026/04/13 14:57:10.13,IMU,296.88,338.87,740.72,-36.99,-34.09,51.92,-2.40,29.70,54.15,28.2
2026/04/13 14:57:10.23,IMU,608.89,341.31,832.52,-100.52,-83.37,50.25,-6.60,25.80,53.10,28.1
2026/04/13 14:57:10.33,IMU,804.69,211.91,983.89,-43.72,-50.74,36.93,-16.20,19.35,55.05,28.3
2026/04/13 14:57:10.43,IMU,590.82,-25.88,644.04,-41.62,-49.91,128.28,-19.80,7.95,51.90,28.0
2026/04/13 14:57:10.53,IMU,814.45,-154.30,720.70,-31.84,-28.38,3.95,-23.25,5.40,50.25,28.2
2026/04/13 14:57:10.63,IMU,898.93,-288.09,425.29,-111.52,36.46,140.87,-20.70,-4.20,48.45,27.8
2026/04/13 14:57:10.73,IMU,347.66,-485.35,854.98,-60.11,49.22,32.16,-10.05,-17.40,48.75,28.1
2026/04/13 14:57:10.83,IMU,243.65,-518.55,627.44,-62.47,113.98,32.16,-4.95,-22.35,45.60,28.2
2026/04/13 14:57:10.93,IMU,209.96,-764.16,479.98,-89.79,96.28,-20.40,2.70,-27.75,40.05,27.7
2026/04/13 14:57:11.03,IMU,232.91,-874.02,504.88,-94.96,38.00,25.85,7.50,-34.20,31.80,28.4
2026/04/13 14:57:11.13,IMU,491.21,-983.40,138.18,-128.88,53.23,-40.79,7.50,-38.10,24.00,28.3
2026/04/13 14:57:11.24,IMU,185.06,-1074.71,340.33,-75.96,22.24,-11.32,8.10,-41.40,16.05,28.3
2026/04/13 14:57:11.34,IMU,367.19,-986.33,157.23,-75.54,184.05,-53.51,6.75,-42.00,8.10,28.4
2026/04/13 14:57:11.44,IMU,226.56,-940.92,96.68,-27.13,92.34,-32.72,3.15,-42.15,3.00,28.2
2026/04/13 14:57:11.54,IMU,315.43,-898.93,95.70,-20.18,55.04,-83.94,-1.50,-40.80,-1.35,28.3
2026/04/13 14:57:11.64,IMU,681.15,-934.57,9.77,-6.10,42.27,-96.24,-14.10,-39.45,-2.40,28.4
2026/04/13 14:57:11.74,IMU,724.12,-823.73,-110.84,-21.58,92.22,-97.34,-19.95,-36.90,-1.80,28.4
2026/04/13 14:57:11.84,IMU,493.16,-745.61,326.66,-38.09,154.34,-24.44,-24.45,-34.95,2.55,28.1
2026/04/13 14:57:11.94,IMU,705.08,-654.79,360.35,11.62,233.02,-69.40,-30.45,-32.55,7.65,28.3
2026/04/13 14:57:12.04,IMU,357.91,-530.27,632.32,61.82,228.21,-76.06,-31.50,-27.00,23.85,28.3
2026/04/13 14:57:12.14,IMU,155.76,-353.03,759.77,139.44,250.13,-51.01,-24.30,-19.50,39.30,28.2
2026/04/13 14:57:12.24,IMU,-84.96,-192.38,1191.89,42.21,178.53,-10.01,-8.40,-9.90,53.85,28.4
2026/04/13 14:57:12.34,IMU,-476.56,-223.63,1151.86,-125.17,233.15,-8.27,5.70,-11.85,53.40,28.0
2026/04/13 14:57:12.44,IMU,-706.05,-471.68,527.34,-120.23,250.13,-63.21,22.05,-21.15,42.75,28.2
2026/04/13 14:57:12.54,IMU,-498.05,-527.83,618.65,-70.42,130.69,-98.20,25.80,-27.30,31.65,28.0
2026/04/13 14:57:12.64,IMU,-1722.66,-987.30,47.85,-104.02,62.36,-132.58,24.45,-33.75,25.05,28.4
2026/04/13 14:57:12.74,IMU,-337.89,-913.57,-249.51,-58.21,46.80,-133.90,18.00,-38.40,13.95,28.3
2026/04/13 14:57:12.84,IMU,-395.51,-1010.25,-265.63,-51.84,36.35,-79.73,7.05,-42.30,11.40,28.4
2026/04/13 14:57:12.94,IMU,-288.57,-1123.54,-359.38,-32.40,59.15,-132.92,-3.15,-42.90,7.20,28.1
2026/04/13 14:57:13.04,IMU,165.53,-822.27,-282.23,68.98,114.89,-201.49,-14.40,-39.00,7.20,28.4
2026/04/13 14:57:13.14,IMU,477.54,-927.25,-207.03,4.02,25.20,-59.43,-25.80,-31.95,13.80,28.1
2026/04/13 14:57:13.24,IMU,471.68,-859.86,-221.19,-34.07,52.51,-71.13,-30.30,-30.90,14.25,28.4
2026/04/13 14:57:13.34,IMU,504.39,-801.27,-248.54,78.22,95.82,-102.77,-34.80,-27.30,19.05,28.1
2026/04/13 14:57:13.44,IMU,714.84,-558.11,262.21,76.23,90.60,-84.17,-38.25,-14.10,30.90,27.8
2026/04/13 14:57:13.54,IMU,814.94,-456.54,376.46,43.79,37.89,-103.79,-37.80,-6.00,37.50,28.0
2026/04/13 14:57:13.64,IMU,800.29,-412.11,195.31,4.81,27.88,-100.53,-39.30,-2.40,44.55,28.4
2026/04/13 14:57:13.74,IMU,852.05,-49.80,652.34,133.99,32.27,-116.47,-36.60,11.55,41.10,28.2
2026/04/13 14:57:13.84,IMU,781.74,82.52,437.50,75.15,41.49,-76.66,-31.95,22.95,42.45,28.6
2026/04/13 14:57:13.94,IMU,605.96,278.81,633.30,151.34,-15.77,-33.33,-28.95,34.95,40.65,28.0
2026/04/13 14:57:14.04,IMU,798.83,468.26,316.41,140.16,61.79,-31.44,-25.80,41.70,35.25,28.3
2026/04/13 14:57:14.14,IMU,666.02,597.66,384.77,124.82,99.31,-1.60,-21.00,49.35,29.55,28.3
2026/04/13 14:57:14.24,IMU,483.40,618.65,636.23,151.69,-214.41,13.06,-21.75,53.25,20.25,28.0
2026/04/13 14:57:14.34,IMU,922.36,588.38,250.98,85.44,90.91,49.18,-26.85,51.45,13.05,28.3
2026/04/13 14:57:14.44,IMU,500.49,462.40,341.31,133.66,-23.52,102.37,-30.90,49.35,9.15,28.4
2026/04/13 14:57:14.54,IMU,661.62,462.89,-88.87,88.42,18.69,36.18,-33.30,46.05,6.45,28.2
2026/04/13 14:57:14.65,IMU,729.98,424.32,-309.08,61.52,-15.34,29.41,-37.80,40.20,4.20,28.3
2026/04/13 14:57:14.75,IMU,982.42,495.61,-225.10,52.56,-30.79,45.79,-34.50,40.65,-7.50,28.2
2026/04/13 14:57:14.85,IMU,26.86,36.62,-1273.44,73.95,249.14,27.18,-35.55,38.25,-12.30,28.1
2026/04/13 14:57:14.95,IMU,1214.84,268.55,-65.43,13.11,67.46,45.16,-41.55,33.60,-9.75,28.2
2026/04/13 14:57:15.05,IMU,831.54,132.81,-207.03,24.85,23.44,37.42,-41.55,30.15,-7.50,28.4
2026/04/13 14:57:15.15,IMU,1185.06,17.58,15.14,78.42,-5.84,24.66,-43.65,27.60,-9.15,28.2
2026/04/13 14:57:15.25,IMU,986.82,12.70,-78.12,82.59,-75.63,42.29,-43.95,24.60,-11.25,28.1
2026/04/13 14:57:15.35,IMU,1038.09,84.47,-645.51,98.57,-77.05,107.87,-38.55,16.50,-22.35,28.2
2026/04/13 14:57:15.45,IMU,477.54,-151.86,-455.57,250.13,-60.01,-17.58,-21.75,-6.60,-36.15,28.0
2026/04/13 14:57:15.55,IMU,824.22,-620.61,-517.09,96.30,1.40,-17.29,-24.90,-17.40,-28.80,28.2
2026/04/13 14:57:15.65,IMU,832.52,-576.66,104.98,89.95,-19.31,-11.49,-27.30,-23.10,-21.90,28.2
2026/04/13 14:57:15.75,IMU,812.99,-617.68,-46.39,172.11,-206.23,71.04,-22.80,-29.70,-16.35,28.2
2026/04/13 14:57:15.85,IMU,431.64,-916.50,-741.70,2.66,-50.02,90.21,-9.90,-37.50,-15.30,28.0
2026/04/13 14:57:15.95,IMU,657.71,-609.86,-171.39,250.13,76.97,-175.63,-14.70,-41.10,-4.35,28.1
2026/04/13 14:57:16.05,IMU,635.74,-710.94,240.23,85.62,-32.84,-24.50,-20.10,-35.55,13.50,28.0
2026/04/13 14:57:16.15,IMU,801.27,-450.68,404.30,102.51,16.20,-66.05,-24.15,-33.45,18.00,28.2
2026/04/13 14:57:16.25,IMU,973.14,-389.65,477.05,89.31,48.29,-82.09,-27.60,-27.00,24.15,28.4
2026/04/13 14:57:16.35,IMU,943.85,-248.54,605.96,135.92,30.37,-136.18,-31.80,-19.20,32.40,28.2
2026/04/13 14:57:16.45,IMU,975.59,148.44,515.14,150.95,69.18,-157.54,-34.65,-3.45,39.60,28.2
2026/04/13 14:57:16.55,IMU,855.96,694.34,321.29,185.08,-107.66,-141.59,-38.40,18.15,37.65,28.4
2026/04/13 14:57:16.65,IMU,668.46,749.51,66.41,106.75,-93.75,23.58,-39.15,32.25,26.55,28.2
2026/04/13 14:57:16.76,IMU,1107.91,539.55,-234.86,56.24,-162.18,-91.54,-42.45,31.65,13.50,28.3
2026/04/13 14:57:16.86,IMU,930.18,599.12,-311.52,47.60,-18.47,-58.60,-39.00,39.45,1.65,28.4
2026/04/13 14:57:16.96,IMU,473.14,943.85,-683.59,111.36,-250.14,-45.04,-36.30,40.20,-4.50,28.1
2026/04/13 14:57:17.06,IMU,566.41,877.93,-484.86,59.67,-250.14,-31.37,-24.90,40.05,-23.25,28.1
2026/04/13 14:57:17.16,IMU,117.68,651.37,-730.96,7.47,-180.82,-4.28,-12.45,38.10,-32.85,28.5
2026/04/13 14:57:17.26,IMU,-331.54,633.30,-672.36,46.02,-199.05,-0.73,3.45,35.85,-36.75,28.3
2026/04/13 14:57:17.36,IMU,-464.36,546.39,-754.88,110.24,-247.67,25.08,14.10,34.35,-37.95,28.4
2026/04/13 14:57:17.46,IMU,-767.58,583.01,-750.00,226.76,-161.83,21.96,28.20,21.30,-34.35,28.2
2026/04/13 14:57:17.56,IMU,-901.37,226.07,-691.89,208.78,-76.84,-15.30,36.75,7.05,-31.20,28.2
2026/04/13 14:57:17.66,IMU,-733.40,98.14,-588.38,151.92,-15.84,-27.85,41.55,-5.25,-24.90,28.5
2026/04/13 14:57:17.76,IMU,-1009.77,-51.76,-408.20,173.91,-34.15,-33.91,41.85,-13.95,-15.90,28.2
2026/04/13 14:57:17.86,IMU,-1106.93,-297.85,-616.70,189.73,49.71,-26.91,41.10,-22.50,-11.40,28.4
2026/04/13 14:57:17.96,IMU,-490.23,-188.96,-1419.43,185.59,250.13,-52.00,36.15,-27.60,-4.35,28.3
2026/04/13 14:57:18.06,IMU,-407.71,-552.73,-743.65,137.95,250.13,62.66,28.05,-31.20,-11.55,28.2
2026/04/13 14:57:18.16,IMU,-25.39,-761.23,-702.15,43.85,194.68,43.82,18.75,-33.75,-19.95,28.4
2026/04/13 14:57:18.26,IMU,235.84,-752.93,-700.68,2.85,222.24,55.75,14.25,-32.25,-22.50,28.0
2026/04/13 14:57:18.36,IMU,381.35,-585.45,-551.27,-17.49,250.13,31.61,6.00,-31.80,-23.70,28.1
2026/04/13 14:57:18.46,IMU,323.73,-949.71,-313.96,-167.69,250.13,5.66,-6.75,-31.05,-26.55,28.1
2026/04/13 14:57:18.56,IMU,875.49,-603.03,-465.33,37.41,125.95,-44.28,-27.30,-21.45,-22.35,28.4
2026/04/13 14:57:18.66,IMU,1041.02,-395.51,315.92,-55.79,220.18,-24.70,-37.65,-21.30,-6.90,28.4
2026/04/13 14:57:18.76,IMU,379.39,-588.87,252.93,172.98,173.75,33.95,-37.05,-24.30,5.25,28.3
2026/04/13 14:57:18.86,IMU,572.75,-485.35,555.18,116.79,120.59,15.82,-36.15,-21.75,21.45,28.4
2026/04/13 14:57:18.96,IMU,398.93,-633.30,440.92,-0.19,-27.98,-87.19,-35.55,-20.40,26.40,28.4
2026/04/13 14:57:19.06,IMU,1083.50,-294.43,405.27,-28.56,-93.44,-98.77,-45.45,-7.05,16.35,28.1
2026/04/13 14:57:19.16,IMU,1051.27,-10.74,59.08,62.66,-79.29,-38.79,-46.35,-1.50,9.60,28.4
2026/04/13 14:57:19.26,IMU,1483.40,-224.12,-273.93,56.71,89.27,-97.62,-43.65,-1.50,-11.40,28.0
2026/04/13 14:57:19.36,IMU,1432.13,-167.48,-288.57,-175.86,250.13,-50.73,-43.65,-3.00,-12.15,28.1
2026/04/13 14:57:19.46,IMU,1405.27,463.87,288.57,-243.02,121.88,229.53,-45.60,4.20,-12.90,28.2
2026/04/13 14:57:19.56,IMU,888.67,-329.10,-417.48,-23.05,21.51,8.73,-43.50,-1.35,-12.75,28.4
2026/04/13 14:57:19.66,IMU,614.75,-183.11,823.24,-185.21,1.98,-10.28,-44.10,-3.45,-8.10,28.5
2026/04/13 14:57:19.76,IMU,989.26,116.70,-536.13,-250.14,-215.76,-42.37,-42.15,14.25,-17.70,28.4
2026/04/13 14:57:19.86,IMU,199.22,21.48,-1685.55,-153.11,-250.14,163.02,-28.05,29.70,-27.15,28.1
2026/04/13 14:57:19.96,IMU,538.57,-162.60,676.76,-79.98,74.72,-10.79,-32.40,29.10,-24.30,28.0
2026/04/13 14:57:20.06,IMU,1059.08,373.54,-724.61,-157.41,85.48,-65.53,-32.25,40.20,-12.00,28.4
2026/04/13 14:57:20.16,IMU,875.00,307.13,-377.93,-42.11,87.47,-49.40,-30.45,45.45,0.00,28.0
2026/04/13 14:57:20.26,IMU,912.60,468.26,-122.07,-106.50,72.09,-5.44,-33.00,46.05,7.20,28.4
2026/04/13 14:57:20.36,IMU,905.76,483.89,-83.50,-124.16,83.27,-43.69,-30.75,46.05,18.60,28.4
2026/04/13 14:57:20.46,IMU,721.19,443.85,178.71,-95.12,11.72,-35.17,-25.35,42.60,35.25,28.4
2026/04/13 14:57:20.56,IMU,1138.18,859.86,-178.22,-209.48,-88.57,-130.36,-18.30,35.10,45.30,28.2
2026/04/13 14:57:20.67,IMU,808.59,452.15,744.14,-75.39,75.53,-52.56,-15.60,32.85,47.55,28.4
2026/04/13 14:57:20.77,IMU,842.29,685.55,1237.79,39.37,-12.89,15.38,-10.50,31.80,50.70,28.0
2026/04/13 14:57:20.87,IMU,582.03,217.77,608.40,-25.40,-12.94,-55.91,-9.90,25.35,53.85,28.2
2026/04/13 14:57:20.97,IMU,166.99,317.38,941.41,-186.85,-178.98,-88.65,-9.15,22.35,55.35,28.4
2026/04/13 14:57:21.07,IMU,1022.46,105.96,79.10,15.02,-97.02,60.93,-39.90,10.05,36.60,28.0
2026/04/13 14:57:21.17,IMU,1922.36,481.93,-295.41,-22.60,70.50,14.53,-39.00,9.00,36.45,28.4
2026/04/13 14:57:21.27,IMU,634.77,105.96,130.37,29.47,-59.52,22.67,-43.50,5.55,29.40,28.5
2026/04/13 14:57:21.37,IMU,521.97,57.13,249.51,-128.25,10.91,-0.66,-45.45,3.30,23.85,28.3
2026/04/13 14:57:21.47,IMU,877.93,115.23,-77.15,-176.39,-61.88,72.51,-45.60,-3.00,21.75,28.3
2026/04/13 14:57:21.57,IMU,999.02,-100.59,-125.00,-48.96,-32.86,55.09,-45.00,-12.60,9.30,28.4
2026/04/13 14:57:21.67,IMU,773.93,-227.05,-251.46,-99.98,-23.82,49.02,-42.45,-16.05,6.00,28.3
2026/04/13 14:57:21.77,IMU,545.41,-304.69,-727.05,-250.14,-145.18,239.06,-36.15,-25.95,-5.55,28.2
2026/04/13 14:57:21.87,IMU,830.08,-381.35,-310.55,43.95,-13.01,6.56,-30.45,-24.90,-16.95,28.1
2026/04/13 14:57:21.97,IMU,273.44,-405.27,-904.79,-140.41,-231.90,136.61,-23.25,-23.70,-23.70,28.1
2026/04/13 14:57:22.07,IMU,825.68,-306.64,-836.91,-78.05,-23.80,24.34,-16.95,-20.10,-33.60,28.3
2026/04/13 14:57:22.17,IMU,781.74,-244.14,-870.12,-37.21,75.24,90.89,-12.00,-15.90,-35.85,28.3
2026/04/13 14:57:22.27,IMU,552.25,-301.27,-1000.98,-34.63,-13.80,-19.35,-8.55,-15.90,-38.10,28.4
2026/04/13 14:57:22.37,IMU,312.01,-244.14,-646.97,-13.26,-238.42,-15.79,-4.50,-14.25,-39.60,28.0
2026/04/13 14:57:22.47,IMU,-427.25,-256.84,-872.07,3.38,-250.14,26.72,26.85,-11.85,-33.45,28.3
2026/04/13 14:57:22.57,IMU,-1093.26,-225.59,-504.39,42.76,-250.14,-24.30,48.00,-10.65,-4.20,28.0
2026/04/13 14:57:22.67,IMU,-887.21,-268.07,-165.04,-20.28,-250.14,-29.19,44.10,-13.20,22.95,28.0
2026/04/13 14:57:22.77,IMU,-661.62,-362.79,341.80,54.29,-198.85,8.08,33.45,-12.75,38.85,28.1
2026/04/13 14:57:22.87,IMU,-542.97,-371.58,535.16,59.66,177.09,109.37,26.40,-4.65,49.50,28.1
2026/04/13 14:57:22.97,IMU,-1304.69,107.91,655.27,17.11,74.26,55.88,39.60,8.55,39.60,28.5
2026/04/13 14:57:23.07,IMU,-622.56,101.07,40.04,16.26,-54.76,79.12,36.75,6.00,43.05,28.5
2026/04/13 14:57:23.17,IMU,-922.36,205.57,223.14,-31.15,83.49,92.06,39.15,10.05,39.15,28.4
2026/04/13 14:57:23.27,IMU,-1191.41,323.73,-167.97,18.61,250.13,127.57,49.20,17.70,18.30,28.2
2026/04/13 14:57:23.37,IMU,-428.71,544.43,-1139.65,-5.12,250.13,2.40,47.70,21.45,-10.05,28.1
2026/04/13 14:57:23.47,IMU,-623.05,414.55,-628.42,8.74,109.02,12.22,34.65,23.25,-29.55,28.3
2026/04/13 14:57:23.57,IMU,-662.60,416.50,-1528.32,67.02,250.13,-161.18,29.55,22.35,-33.75,28.2
2026/04/13 14:57:23.67,IMU,-232.91,447.27,-956.05,27.12,11.37,-44.71,29.10,17.25,-37.50,28.4
2026/04/13 14:57:23.78,IMU,-500.49,115.23,-663.57,81.73,27.86,-78.98,23.10,6.75,-33.75,28.4
2026/04/13 14:57:23.88,IMU,-393.07,55.66,-853.52,202.32,-250.14,21.07,42.60,-3.45,-23.25,28.2
2026/04/13 14:57:23.98,IMU,-808.59,-286.62,-1012.70,178.25,-55.31,6.55,48.60,-4.95,-7.35,28.4
2026/04/13 14:57:24.08,IMU,-477.05,-369.14,-797.85,57.41,15.08,1.71,46.20,-7.95,-7.95,28.4
2026/04/13 14:57:24.18,IMU,-626.46,-376.95,-681.15,6.36,-27.73,32.41,47.25,-9.90,-11.55,28.4
2026/04/13 14:57:24.28,IMU,-816.41,-417.48,-688.48,12.89,10.61,12.24,46.50,-6.75,-10.05,28.1
2026/04/13 14:57:24.38,IMU,-845.70,-253.42,-461.91,37.24,-109.17,2.42,48.00,-6.00,-8.70,28.0
2026/04/13 14:57:24.48,IMU,-726.56,-327.64,-620.12,-8.36,109.00,-24.47,45.75,-7.95,-12.30,28.4
2026/04/13 14:57:24.58,IMU,-972.17,-357.42,-697.27,8.05,250.13,-78.82,45.15,-10.80,-12.15,28.1
2026/04/13 14:57:24.68,IMU,490.72,-749.02,-245.61,206.08,250.13,40.03,6.15,-24.30,-34.50,28.3
2026/04/13 14:57:24.78,IMU,620.12,-885.25,-473.14,15.67,198.71,-179.65,-4.80,-31.05,-25.50,28.4
2026/04/13 14:57:24.88,IMU,1409.67,-524.41,-39.55,-138.12,250.13,-47.50,-29.70,-24.45,-18.75,28.4
2026/04/13 14:57:24.98,IMU,906.74,-527.83,157.71,-11.12,250.13,-68.36,-40.65,-18.60,-3.30,28.4
2026/04/13 14:57:25.08,IMU,534.18,-668.95,366.21,35.38,184.15,31.64,-41.25,-18.45,13.80,28.4
2026/04/13 14:57:25.18,IMU,444.34,-397.95,902.83,-19.40,110.83,-108.62,-39.75,-15.30,26.40,28.3
2026/04/13 14:57:25.28,IMU,653.81,-16.11,894.04,133.66,-181.03,-83.48,-43.65,-5.40,23.25,27.9
2026/04/13 14:57:25.38,IMU,1016.60,131.84,663.09,24.56,-37.90,-102.53,-46.50,4.80,17.85,28.0
2026/04/13 14:57:25.48,IMU,1019.53,337.89,242.19,47.98,-100.31,-145.65,-48.00,19.20,10.50,28.1
2026/04/13 14:57:25.58,IMU,1158.69,779.79,90.33,29.90,-54.00,-204.81,-39.90,33.75,-4.35,28.2
2026/04/13 14:57:25.68,IMU,477.54,953.61,-348.63,29.98,-250.14,-195.28,-23.70,48.60,-12.45,28.4
2026/04/13 14:57:25.78,IMU,633.79,1088.87,-329.59,26.62,-73.15,-139.13,-4.20,52.65,-18.30,28.4
2026/04/13 14:57:25.89,IMU,-97.66,904.79,-72.75,-40.74,-250.14,-50.71,3.75,53.25,-18.75,28.1
2026/04/13 14:57:25.99,IMU,-637.21,936.52,-23.44,44.53,-250.14,-104.91,25.35,51.45,-7.95,28.4
2026/04/13 14:57:26.09,IMU,-742.68,798.83,265.63,-95.07,-210.23,-101.03,34.20,47.40,12.15,28.4
2026/04/13 14:57:26.19,IMU,-750.00,816.89,494.14,-88.06,-208.54,-34.49,31.95,41.55,31.80,28.2
2026/04/13 14:57:26.29,IMU,-250.00,873.05,708.98,-69.28,-201.27,-143.66,22.20,31.50,49.20,28.1
2026/04/13 14:57:26.39,IMU,-91.31,404.30,905.27,-138.82,-146.00,-132.53,11.55,21.75,55.50,28.4
2026/04/13 14:57:26.49,IMU,-32.71,230.47,745.12,-149.53,-41.24,-99.79,1.65,9.45,57.45,28.1
2026/04/13 14:57:26.59,IMU,52.73,-0.49,979.98,-140.18,39.46,-82.90,-1.20,-3.60,54.90,28.4
2026/04/13 14:57:26.69,IMU,42.48,-171.39,812.50,-152.24,76.51,-106.48,0.30,-15.15,51.45,28.3
2026/04/13 14:57:26.79,IMU,-300.78,-451.66,614.26,-141.12,73.41,-86.85,0.45,-25.35,43.05,28.1
2026/04/13 14:57:26.89,IMU,-127.93,-697.27,901.37,-69.77,137.62,-97.47,0.30,-31.80,36.60,27.9
2026/04/13 14:57:26.99,IMU,-423.83,-846.19,855.96,-46.66,92.30,-114.15,3.00,-34.95,32.55,28.4
2026/04/13 14:57:27.09,IMU,-352.54,-758.30,358.89,24.15,250.13,-47.47,3.75,-37.35,30.30,28.2
2026/04/13 14:57:27.19,IMU,-659.18,-801.76,405.27,76.40,-19.04,-74.05,19.50,-34.20,28.05,28.2
2026/04/13 14:57:27.29,IMU,-765.63,-877.44,-5.37,71.76,131.35,-76.74,18.60,-32.40,29.40,28.4
2026/04/13 14:57:27.39,IMU,-988.77,-823.73,-171.39,150.41,250.13,3.36,26.85,-31.20,25.65,28.3
2026/04/13 14:57:27.49,IMU,-882.81,-863.28,-270.02,97.38,250.13,75.93,39.75,-23.40,6.00,28.4
2026/04/13 14:57:27.59,IMU,-498.05,-891.11,-481.45,75.97,250.13,45.88,30.90,-22.50,-22.95,28.4
2026/04/13 14:57:27.69,IMU,-708.01,-867.68,-151.37,-13.99,105.22,-124.38,14.40,-23.85,-30.15,28.4
2026/04/13 14:57:27.79,IMU,516.60,-759.77,-271.48,-25.34,250.13,-60.50,-4.50,-22.95,-32.55,28.3
2026/04/13 14:57:27.89,IMU,460.45,-665.53,9.28,-21.71,250.13,-40.62,-31.05,-19.50,-20.10,28.3
2026/04/13 14:57:27.99,IMU,685.55,-589.36,-67.38,-101.25,62.95,-10.28,-41.10,-13.95,-11.10,28.4
2026/04/13 14:57:28.09,IMU,683.59,-602.05,-108.89,-90.15,175.24,10.75,-42.15,-13.20,-4.35,28.4
2026/04/13 14:57:28.19,IMU,594.24,-597.17,494.63,-159.27,231.08,-90.34,-44.25,-11.40,11.25,28.2
2026/04/13 14:57:28.29,IMU,1229.49,-643.07,544.43,-37.86,202.41,10.09,-45.60,-4.20,15.45,28.4
2026/04/13 14:57:28.39,IMU,1249.51,-582.03,-223.63,-78.26,-113.47,-86.73,-46.35,-3.75,11.85,28.4
2026/04/13 14:57:28.49,IMU,795.90,-588.38,-29.79,-71.16,-3.53,-30.08,-47.25,-0.45,6.00,28.2
2026/04/13 14:57:28.59,IMU,870.61,-471.68,-180.18,-80.31,-59.97,-16.24,-46.95,3.30,-0.45,28.2
2026/04/13 14:57:28.69,IMU,707.03,-172.36,-101.07,-172.93,-56.75,-23.21,-47.70,6.75,-3.45,28.4
2026/04/13 14:57:28.79,IMU,962.89,-32.71,-746.58,-95.37,9.82,11.19,-47.25,11.85,-3.75,28.0
2026/04/13 14:57:28.89,IMU,983.89,-184.57,-522.46,-29.98,28.57,85.31,-48.00,6.75,-1.95,28.4
2026/04/13 14:57:28.99,IMU,1176.27,-269.53,-309.57,-75.70,64.70,112.98,-48.60,1.80,1.05,28.4
2026/04/13 14:57:29.09,IMU,868.65,-329.59,15.63,-44.85,12.55,250.13,-46.20,-4.35,3.45,28.2
2026/04/13 14:57:29.19,IMU,761.23,-640.63,-844.73,-11.74,41.34,97.37,-39.75,-17.70,3.00,28.2
2026/04/13 14:57:29.29,IMU,750.00,-624.02,-258.30,-76.98,-91.83,125.43,-34.20,-26.70,0.00,28.4
2026/04/13 14:57:29.39,IMU,88.38,-546.39,168.95,-138.58,53.70,127.30,-22.20,-33.75,-9.60,28.4
2026/04/13 14:57:29.49,IMU,136.23,-105.47,-1268.07,-154.80,-91.37,40.73,-21.60,-16.50,-30.90,28.4
2026/04/13 14:57:29.59,IMU,64.94,-133.79,-1038.09,-61.83,-74.40,-1.95,-13.35,-12.90,-37.95,28.4
2026/04/13 14:57:29.69,IMU,183.11,-26.86,-990.23,-24.55,-71.02,-23.35,-9.60,-7.05,-40.05,28.0
2026/04/13 14:57:29.80,IMU,-62.50,15.63,-1087.40,-44.89,-65.65,-37.15,-5.40,-4.80,-43.50,28.3
2026/04/13 14:57:29.90,IMU,-6.84,409.18,-655.27,49.15,-104.45,-101.18,-0.90,-5.55,-44.55,28.4
2026/04/13 14:57:30.00,IMU,-246.58,-67.38,-823.24,-83.70,-27.63,-17.02,1.20,-4.80,-43.80,28.4
2026/04/13 14:57:30.10,IMU,-704.59,325.68,-1455.57,4.76,200.27,250.13,0.90,38.25,-44.25,28.4
2026/04/13 14:57:30.20,IMU,-308.11,281.74,-952.64,-94.02,-156.23,-141.84,1.95,6.75,-44.25,28.2
2026/04/13 14:57:30.30,IMU,-98.63,274.41,-399.41,-69.68,-61.76,110.21,10.35,9.45,-44.85,28.4
2026/04/13 14:57:30.40,IMU,-403.32,674.32,-748.54,-196.26,22.73,191.69,10.35,24.60,-40.80,28.1
2026/04/13 14:57:30.50,IMU,-201.66,816.89,-547.36,2.81,-109.94,-47.70,14.85,33.15,-36.00,28.2
2026/04/13 14:57:30.60,IMU,-468.75,685.06,-546.39,-1.19,-12.47,-29.98,20.55,33.15,-34.50,28.0
2026/04/13 14:57:30.70,IMU,-472.66,750.98,-600.10,9.74,-1.44,-49.28,23.85,31.95,-32.70,28.3
2026/04/13 14:57:30.80,IMU,-477.54,681.15,-513.18,20.11,3.99,-14.97,24.90,28.65,-34.80,28.3
2026/04/13 14:57:30.90,IMU,-463.38,625.49,-597.17,36.46,8.44,3.06,25.05,27.75,-35.70,28.4
2026/04/13 14:57:31.00,IMU,-446.29,450.20,-623.05,45.98,36.47,6.89,23.55,24.60,-37.95,28.3
2026/04/13 14:57:31.10,IMU,-358.40,499.51,-780.27,-11.04,25.00,-14.13,22.35,22.65,-40.50,28.2
2026/04/13 14:57:31.20,IMU,-331.54,519.53,-809.57,25.02,11.29,6.47,17.85,19.50,-40.05,28.2
2026/04/13 14:57:31.30,IMU,-365.72,528.81,-838.87,8.73,4.80,-0.52,17.25,20.10,-42.90,28.2
2026/04/13 14:57:31.40,IMU,-366.21,466.80,-806.15,19.40,5.92,-2.98,16.95,17.40,-42.90,28.4
2026/04/13 14:57:31.50,IMU,-359.86,393.55,-824.22,20.40,8.70,-1.56,17.85,14.85,-43.80,28.2
2026/04/13 14:57:31.60,IMU,-364.26,408.69,-862.30,8.96,-1.69,4.76,16.65,14.10,-42.30,28.2
2026/04/13 14:57:31.70,IMU,-334.47,408.69,-902.34,-13.58,-22.53,5.43,17.70,13.20,-43.65,28.4
2026/04/13 14:57:31.80,IMU,-365.72,363.77,-710.94,-13.15,3.60,-11.97,17.25,15.15,-42.45,28.3
2026/04/13 14:57:31.90,IMU,-340.33,410.64,-479.98,-30.13,63.60,-43.95,15.15,14.10,-39.75,28.4
2026/04/13 14:57:32.00,IMU,-238.77,630.86,-391.60,-173.57,7.32,-88.86,12.75,18.15,-44.40,28.2
2026/04/13 14:57:32.10,IMU,-440.92,869.63,-609.38,-0.47,120.63,-116.95,13.50,29.85,-39.60,28.6
2026/04/13 14:57:32.20,IMU,-182.62,884.28,-1177.25,-52.75,250.13,-53.59,-6.90,35.10,-35.55,28.4
2026/04/13 14:57:32.30,IMU,139.65,435.06,-1155.76,104.79,37.98,-33.42,-13.65,33.15,-31.20,27.9
2026/04/13 14:57:32.40,IMU,1999.94,116.21,1326.17,250.13,12.92,250.13,-25.95,19.80,-27.75,28.2
2026/04/13 14:57:32.50,IMU,473.14,-585.94,174.80,-68.75,-145.02,19.54,-33.90,-14.25,-13.95,28.3
2026/04/13 14:57:32.60,IMU,480.47,-425.78,-928.22,-17.66,-36.44,-3.46,-31.20,-13.20,-16.95,28.0
2026/04/13 14:57:32.70,IMU,507.32,-434.08,-757.81,-3.80,-5.92,-5.35,-31.80,-12.15,-17.10,28.3
2026/04/13 14:57:32.80,IMU,503.91,-429.69,-779.30,-2.82,1.59,-1.75,-31.65,-13.95,-17.40,28.4
2026/04/13 14:57:32.91,IMU,499.51,-435.55,-767.58,-1.11,-0.32,-0.48,-33.15,-16.20,-12.45,28.2
2026/04/13 14:57:33.01,IMU,498.05,-428.71,-759.28,-1.91,-1.15,-0.92,-32.25,-12.90,-18.30,28.2
2026/04/13 14:57:33.11,IMU,501.46,-434.08,-767.58,-1.90,-2.11,-3.19,-30.90,-13.95,-17.70,28.1
2026/04/13 14:57:33.21,IMU,512.21,-428.71,-770.02,-1.11,0.11,-1.94,-31.05,-14.10,-16.80,28.2
2026/04/13 14:57:33.31,IMU,506.35,-428.22,-767.58,-1.02,0.18,-1.91,-32.25,-12.60,-17.85,28.2
2026/04/13 14:57:33.41,IMU,499.51,-438.96,-761.23,-2.25,-2.17,-0.63,-29.40,-13.50,-18.00,28.4
2026/04/13 14:57:33.51,IMU,500.98,-422.36,-765.14,-1.08,2.08,-1.74,-32.40,-15.15,-18.00,28.4
2026/04/13 14:57:33.61,IMU,506.84,-426.27,-773.44,-3.04,-3.84,-1.53,-31.50,-12.90,-19.05,28.2
2026/04/13 14:57:33.71,IMU,504.88,-428.71,-764.65,0.26,-0.98,-4.29,-32.40,-12.45,-17.70,28.3
2026/04/13 14:57:33.81,IMU,505.86,-421.88,-760.74,-2.69,-1.63,0.22,-32.70,-13.95,-17.40,28.1
2026/04/13 14:57:33.91,IMU,498.54,-435.06,-768.55,-2.44,-0.18,1.67,-31.05,-13.80,-18.30,28.0
