Timestamp,Sensor,AccX,AccY,AccZ,GyrX,GyrY,GyrZ,MagX,MagY,MagZ,Temp
2026/04/13 14:56:30.00,IMU,-38.09,-4.88,-1002.93,-1.14,-0.45,0.96,-10.35,10.95,-31.95,27.8
2026/04/13 14:56:30.10,IMU,-31.74,-18.55,-1005.86,-3.49,-0.89,1.06,-9.75,11.55,-32.55,27.9
2026/04/13 14:56:30.20,IMU,-45.41,-19.53,-991.21,-2.39,-2.35,-0.75,-9.60,10.95,-31.20,28.0
2026/04/13 14:56:30.30,IMU,-42.48,-6.35,-996.58,-0.85,-2.53,-2.27,-11.10,10.20,-31.65,28.2
2026/04/13 14:56:30.40,IMU,-41.99,-18.07,-1008.30,-1.37,0.21,0.05,-11.40,10.20,-31.95,28.0
2026/04/13 14:56:30.50,IMU,-44.92,-12.21,-1003.91,-0.94,-3.08,-1.38,-10.05,10.50,-32.10,28.2
2026/04/13 14:56:30.60,IMU,-38.57,-9.28,-994.63,-1.49,-0.56,-0.44,-10.05,10.80,-31.80,28.2
2026/04/13 14:56:30.70,IMU,-48.83,-18.07,-993.16,-0.43,-1.53,-0.62,-10.80,10.50,-33.30,27.9
2026/04/13 14:56:30.80,IMU,-28.81,-23.44,-1008.79,-2.18,0.08,0.98,-10.65,11.85,-31.95,28.0
2026/04/13 14:56:30.90,IMU,-32.71,-8.79,-985.84,-0.85,0.40,3.43,-11.40,10.65,-31.65,27.9
2026/04/13 14:56:31.00,IMU,-38.09,-25.88,-998.05,0.06,-1.60,-2.02,-9.00,11.55,-31.05,27.8
2026/04/13 14:56:31.10,IMU,-55.18,-7.32,-1029.30,-1.75,0.08,-2.10,-11.55,11.55,-32.55,28.2
2026/04/13 14:56:31.20,IMU,-34.67,-20.02,-981.45,0.44,-1.49,-0.79,-10.35,11.85,-31.65,28.2
2026/04/13 14:56:31.30,IMU,-48.34,-14.65,-1003.42,-0.31,-4.34,-0.06,-10.05,10.80,-32.85,28.2
2026/04/13 14:56:31.40,IMU,-32.71,-19.04,-997.56,-0.59,-0.23,-0.13,-10.80,10.80,-32.10,28.0
2026/04/13 14:56:31.50,IMU,-44.43,-11.72,-1011.23,-1.96,1.09,-1.63,-9.60,10.20,-30.90,28.0
2026/04/13 14:56:31.61,IMU,-48.34,-10.74,-1000.49,-0.30,0.51,0.79,-10.80,11.25,-32.85,27.8
2026/04/13 14:56:31.71,IMU,-46.39,-15.63,-1004.88,0.13,-2.13,-0.08,-10.50,11.25,-32.55,28.0
2026/04/13 14:56:31.81,IMU,-39.55,-18.55,-1004.39,-1.09,-0.18,-2.50,-9.15,10.95,-31.20,27.8
2026/04/13 14:56:31.91,IMU,-56.15,-11.23,-1000.98,-2.03,-2.02,-1.84,-10.05,10.80,-30.60,28.0
2026/04/13 14:56:32.01,IMU,-33.20,-27.34,-1001.95,-2.09,0.29,-2.18,-10.65,10.20,-32.40,27.9
2026/04/13 14:56:32.11,IMU,-49.80,-17.09,-1007.32,-1.50,0.60,-0.96,-9.75,8.85,-31.80,28.1
2026/04/13 14:56:32.21,IMU,-43.95,1.46,-1002.93,-2.57,1.97,-3.97,-10.65,9.90,-31.65,28.1
2026/04/13 14:56:32.31,IMU,-42.97,-33.69,-1003.91,-0.11,0.31,-3.39,-11.25,10.80,-30.60,28.0
2026/04/13 14:56:32.41,IMU,-37.11,-18.07,-1001.95,0.88,0.18,1.23,-9.90,11.40,-31.95,28.0
2026/04/13 14:56:32.51,IMU,-40.04,-5.37,-1010.74,-1.16,-2.34,2.08,-9.90,9.90,-32.70,27.8
2026/04/13 14:56:32.61,IMU,-44.43,-11.23,-996.09,-0.96,1.15,-0.62,-10.50,10.50,-30.30,28.0
2026/04/13 14:56:32.71,IMU,-36.13,-20.51,-1006.84,-2.95,1.31,1.93,-10.65,10.65,-32.40,28.2
2026/04/13 14:56:32.81,IMU,-38.09,-5.86,-1024.90,-1.73,0.77,3.10,-9.30,11.25,-32.10,28.0
2026/04/13 14:56:32.91,IMU,-42.97,-5.86,-1004.88,-2.92,-1.42,-1.41,-10.35,9.00,-30.90,28.2
2026/04/13 14:56:33.01,IMU,-38.57,-5.86,-996.09,-2.89,-1.05,-2.46,-9.90,9.90,-31.95,28.0
2026/04/13 14:56:33.11,IMU,-38.57,-14.65,-1006.35,0.08,-2.72,0.15,-10.35,10.95,-32.40,27.8
2026/04/13 14:56:33.21,IMU,-51.76,1.95,-1000.98,-1.08,-4.95,-4.73,-9.00,10.05,-30.60,28.1
2026/04/13 14:56:33.31,IMU,-24.41,-14.65,-1002.44,0.09,1.35,0.03,-9.30,10.50,-32.55,28.4
2026/04/13 14:56:33.41,IMU,-53.71,-25.39,-1012.21,-0.79,-1.66,-0.29,-10.50,10.80,-31.35,28.0
2026/04/13 14:56:33.51,IMU,-40.53,-14.16,-997.56,-0.64,-0.56,-2.05,-10.50,11.55,-32.10,28.2
2026/04/13 14:56:33.61,IMU,-40.53,-18.07,-1014.65,0.54,0.69,-2.00,-9.90,10.65,-31.65,28.0
2026/04/13 14:56:33.71,IMU,-41.50,-7.81,-1008.30,-0.50,0.50,1.67,-9.30,11.55,-32.10,28.0
2026/04/13 14:56:33.81,IMU,-42.48,-17.09,-998.05,-2.44,-0.62,-0.03,-10.35,9.90,-31.65,28.0
2026/04/13 14:56:33.91,IMU,-49.32,-9.28,-1007.32,-2.23,0.13,1.07,-10.05,10.80,-31.35,27.8
2026/04/13 14:56:34.01,IMU,-36.62,-9.77,-1015.14,-2.42,-0.48,1.75,-9.90,11.40,-30.90,28.1
2026/04/13 14:56:34.11,IMU,-46.39,-23.44,-1007.32,-0.74,-1.98,2.34,-11.10,11.40,-31.65,28.1
2026/04/13 14:56:34.21,IMU,-39.55,-14.65,-1007.81,1.42,-0.40,0.10,-10.80,10.50,-32.10,28.0
2026/04/13 14:56:34.31,IMU,-43.46,-27.83,-993.16,-0.21,-1.05,1.05,-11.25,11.25,-31.80,28.1
2026/04/13 14:56:34.41,IMU,-37.60,-10.25,-1002.93,-2.33,-0.65,1.32,-11.25,10.50,-31.35,27.9
2026/04/13 14:56:34.51,IMU,-47.85,-10.25,-990.72,-1.69,1.33,-4.37,-9.30,10.50,-32.55,28.0
2026/04/13 14:56:34.61,IMU,-41.99,-17.58,-1010.25,-1.46,-1.39,0.45,-10.80,10.05,-31.80,27.7
2026/04/13 14:56:34.71,IMU,-35.64,-8.30,-1005.86,-2.52,-0.49,-0.47,-10.35,9.90,-32.70,28.1
2026/04/13 14:56:34.81,IMU,-39.06,-23.44,-1001.95,-0.58,1.49,0.51,-11.10,11.40,-31.65,28.1
2026/04/13 14:56:34.91,IMU,-36.62,-17.09,-1005.86,-1.44,-1.02,-1.85,-10.05,9.60,-31.80,28.2
2026/04/13 14:56:35.01,IMU,-41.02,-17.09,-1010.74,-3.17,-0.92,-0.98,-9.30,10.50,-31.05,28.1
2026/04/13 14:56:35.11,IMU,-42.48,-6.35,-1006.84,-0.59,-0.79,-1.03,-13.20,9.60,-29.25,27.9
2026/04/13 14:56:35.21,IMU,-34.67,-19.04,-1001.95,-2.61,0.56,1.46,-9.75,10.50,-31.80,27.6
2026/04/13 14:56:35.31,IMU,-49.32,-8.30,-1005.86,-1.63,-1.30,-1.46,-9.60,12.15,-32.40,27.9
2026/04/13 14:56:35.42,IMU,-41.50,-20.51,-999.02,-1.09,-0.37,3.03,-9.90,10.95,-31.20,28.0
2026/04/13 14:56:35.52,IMU,-44.92,-15.63,-1005.37,-1.73,-1.31,-0.98,-10.05,10.50,-31.35,28.2
2026/04/13 14:56:35.62,IMU,-51.27,-19.53,-1000.00,-1.95,0.90,-0.25,-10.35,11.85,-32.70,28.2
2026/04/13 14:56:35.72,IMU,-38.09,-0.49,-999.02,-2.27,-0.34,-0.91,-11.25,11.25,-32.85,28.3
2026/04/13 14:56:35.82,IMU,-42.97,-12.21,-1005.86,-2.95,-0.67,-1.60,-10.80,11.55,-31.80,27.9
2026/04/13 14:56:35.92,IMU,-51.27,-17.09,-997.56,-0.73,1.63,-0.61,-10.35,9.90,-32.40,28.0
2026/04/13 14:56:36.02,IMU,-41.02,-14.16,-1005.86,-1.31,1.37,-1.76,-9.90,9.45,-31.95,28.0
2026/04/13 14:56:36.12,IMU,-28.32,-10.74,-1010.74,-0.35,-1.78,-1.83,-12.45,10.50,-28.80,28.0
2026/04/13 14:56:36.22,IMU,-36.62,-20.51,-1000.49,-1.18,-1.68,-2.06,-9.60,10.65,-32.70,28.4
2026/04/13 14:56:36.32,IMU,-38.09,-15.63,-1005.86,-2.43,-0.76,0.92,-9.90,10.65,-32.70,28.3
2026/04/13 14:56:36.42,IMU,-45.90,-23.44,-1011.23,-1.72,-2.36,-2.08,-10.35,10.65,-32.70,28.4
2026/04/13 14:56:36.52,IMU,-31.25,-17.58,-997.56,-1.58,0.06,0.31,-10.80,11.25,-32.55,28.2
2026/04/13 14:56:36.62,IMU,-37.60,-12.70,-1008.79,0.23,-3.71,0.72,-10.65,12.15,-31.95,28.0
2026/04/13 14:56:36.72,IMU,-39.55,-16.60,-1008.30,-1.76,0.96,1.43,-11.10,11.40,-31.20,28.3
2026/04/13 14:56:36.82,IMU,-46.39,-0.49,-991.21,0.81,-1.45,-2.07,-8.55,10.80,-29.85,28.0
2026/04/13 14:56:36.92,IMU,-34.18,-16.11,-1006.35,-2.30,0.33,-1.08,-9.75,11.25,-32.85,28.2
2026/04/13 14:56:37.02,IMU,-44.43,-10.74,-1002.44,-0.08,-0.23,0.58,-9.90,10.20,-31.20,28.1
2026/04/13 14:56:37.12,IMU,-36.62,-22.95,-1006.35,-1.00,1.33,-4.07,-13.95,8.10,-27.30,28.3
2026/04/13 14:56:37.22,IMU,-44.92,-12.70,-1009.28,-0.85,0.85,-1.76,-9.60,10.95,-32.70,28.4
2026/04/13 14:56:37.32,IMU,-40.53,-13.67,-997.56,-1.54,-0.29,-0.12,-11.10,11.40,-33.00,28.1
2026/04/13 14:56:37.42,IMU,-43.46,-30.27,-998.54,-0.98,-2.12,1.27,-9.00,9.60,-31.80,28.0
2026/04/13 14:56:37.52,IMU,-39.06,-2.44,-1004.88,-2.54,-1.39,-1.91,-10.65,10.95,-31.95,28.4
2026/04/13 14:56:37.62,IMU,-37.60,-8.30,-1003.91,-0.23,-3.13,-2.60,-9.15,9.90,-31.20,28.4
2026/04/13 14:56:37.73,IMU,-45.90,-6.84,-1006.35,-2.33,-0.53,-0.69,-10.65,10.95,-31.95,28.2
2026/04/13 14:56:37.83,IMU,-47.36,-10.74,-996.09,-0.15,0.47,-0.63,-11.55,11.25,-32.10,28.0
2026/04/13 14:56:37.93,IMU,-42.97,-3.42,-997.56,-1.44,0.64,1.18,-10.65,12.15,-32.40,28.0
2026/04/13 14:56:38.03,IMU,-45.41,-22.95,-1010.74,-2.03,0.40,0.80,-11.25,11.25,-30.60,28.0
2026/04/13 14:56:38.13,IMU,-28.32,-7.81,-1003.42,-0.27,-0.96,-0.23,-10.65,10.95,-32.70,28.3
2026/04/13 14:56:38.23,IMU,-52.25,-20.51,-1005.37,-0.91,0.02,1.18,-9.30,11.25,-31.35,28.0
2026/04/13 14:56:38.33,IMU,-36.62,-9.77,-1007.32,-2.63,-0.49,-2.76,-10.05,10.50,-31.35,28.0
2026/04/13 14:56:38.43,IMU,-34.67,-17.58,-1017.09,-0.98,-1.91,-2.00,-10.50,11.55,-31.05,28.4
2026/04/13 14:56:38.53,IMU,-47.36,-5.86,-1013.18,-1.82,-0.93,-1.12,-10.80,10.50,-32.85,28.2
2026/04/13 14:56:38.63,IMU,-42.97,-5.37,-1000.49,-1.47,-0.27,-0.22,-9.75,10.80,-32.85,28.0
2026/04/13 14:56:38.73,IMU,-58.11,2.44,-1006.35,-0.72,-0.32,0.46,-9.30,10.80,-31.35,28.2
2026/04/13 14:56:38.83,IMU,-38.57,-18.55,-1008.30,-1.08,1.36,0.10,-9.90,10.65,-32.70,28.2
2026/04/13 14:56:38.93,IMU,-39.55,-6.84,-999.02,-0.91,-2.44,1.36,-10.50,10.80,-31.80,28.2
2026/04/13 14:56:39.03,IMU,-26.86,-1.46,-1017.58,0.50,-2.25,1.31,-10.05,11.25,-32.85,28.4
2026/04/13 14:56:39.13,IMU,-50.78,-13.18,-1003.91,0.02,-1.95,-0.18,-9.15,10.65,-31.95,28.3
2026/04/13 14:56:39.23,IMU,-36.62,-19.53,-1000.00,-1.96,-0.99,-0.44,-10.35,10.20,-31.95,28.4
2026/04/13 14:56:39.33,IMU,-46.88,-23.44,-1004.88,-1.13,-2.18,1.45,-9.60,10.95,-31.65,28.2
2026/04/13 14:56:39.43,IMU,-48.83,-16.11,-1002.44,-2.20,-4.98,-3.40,-10.35,11.85,-30.90,28.0
2026/04/13 14:56:39.53,IMU,-45.41,-9.28,-1007.32,-1.95,-2.73,-0.59,-10.80,11.25,-32.10,28.2
2026/04/13 14:56:39.63,IMU,-32.71,-13.18,-1005.37,-2.74,0.24,-5.56,-10.50,10.50,-31.80,28.2
2026/04/13 14:56:39.73,IMU,-46.88,-14.65,-1013.67,-2.13,-1.53,1.06,-9.75,11.55,-33.60,28.4
2026/04/13 14:56:39.83,IMU,-43.95,-8.30,-998.54,0.05,-0.81,0.03,-9.60,10.65,-31.95,28.0
2026/04/13 14:56:39.93,IMU,-33.20,-10.25,-1002.44,-1.45,-2.68,0.82,-10.65,9.90,-32.40,27.9
2026/04/13 14:56:40.03,IMU,-43.95,-16.60,-1003.42,-1.37,0.38,-1.21,-10.35,10.20,-32.40,28.0
2026/04/13 14:56:40.13,IMU,-41.50,-16.11,-1001.46,0.10,-1.32,-1.79,-10.65,10.95,-32.40,28.3
2026/04/13 14:56:40.23,IMU,-38.09,-13.67,-993.16,-2.98,0.25,-2.91,-11.10,9.90,-30.90,28.2
2026/04/13 14:56:40.33,IMU,-43.95,-26.37,-1013.67,0.31,-0.85,-0.29,-10.65,9.90,-31.95,28.0
2026/04/13 14:56:40.43,IMU,-50.78,-15.14,-1017.09,-1.50,0.98,0.69,-9.60,10.95,-31.65,28.4
2026/04/13 14:56:40.53,IMU,-46.88,-6.35,-1021.00,0.87,-2.56,-1.81,-9.90,10.20,-30.90,28.0
2026/04/13 14:56:40.63,IMU,-47.85,-10.74,-1010.74,-1.50,-0.12,3.03,-9.75,8.85,-32.55,28.0
2026/04/13 14:56:40.73,IMU,-39.55,-1.95,-1017.58,-1.27,-2.21,1.51,-11.40,10.65,-31.65,28.1
2026/04/13 14:56:40.83,IMU,-40.53,-5.37,-1007.32,-1.74,0.31,2.33,-12.15,11.40,-31.65,28.3
2026/04/13 14:56:40.93,IMU,-38.09,-11.72,-1004.88,-1.70,-1.05,-0.10,-9.15,10.20,-32.40,28.3
2026/04/13 14:56:41.03,IMU,-44.92,-10.74,-999.51,-1.72,-0.30,-2.36,-9.75,10.50,-30.60,28.2
2026/04/13 14:56:41.13,IMU,-41.02,-6.84,-990.72,-2.51,1.71,-0.73,-10.65,11.85,-31.65,28.4
2026/04/13 14:56:41.23,IMU,-55.66,-4.88,-1009.77,-1.00,-0.13,0.79,-11.40,10.20,-31.95,28.0
2026/04/13 14:56:41.33,IMU,-38.09,-13.67,-1013.18,-0.20,1.76,-3.45,-9.90,10.65,-31.65,28.1
2026/04/13 14:56:41.43,IMU,-41.02,-10.25,-993.16,-1.08,-0.41,-0.15,-11.55,11.55,-31.80,27.9
2026/04/13 14:56:41.54,IMU,-39.55,-3.91,-1002.44,-1.16,-0.98,1.34,-10.35,11.85,-31.20,28.2
2026/04/13 14:56:41.64,IMU,-26.37,-5.86,-1010.25,-0.80,-1.96,-0.59,-9.75,10.80,-32.10,28.1
2026/04/13 14:56:41.74,IMU,-51.27,-13.67,-1006.84,-0.50,1.05,-1.68,-10.05,9.60,-32.10,28.4
2026/04/13 14:56:41.84,IMU,-49.32,-11.72,-1014.65,0.53,-1.69,-0.53,-11.40,11.40,-31.20,28.1
2026/04/13 14:56:41.94,IMU,-48.83,3.42,-1011.72,-1.50,-0.72,3.19,-9.90,10.65,-31.95,28.1
2026/04/13 14:56:42.04,IMU,-33.20,-2.44,-1000.49,-1.93,1.20,0.03,-10.65,10.20,-31.95,28.3
2026/04/13 14:56:42.14,IMU,-50.29,-15.14,-1000.98,-0.47,-0.03,-1.38,-9.90,12.15,-32.70,28.0
2026/04/13 14:56:42.24,IMU,-37.60,-14.65,-1005.86,-2.05,0.68,1.18,-10.35,11.40,-31.20,28.2
2026/04/13 14:56:42.34,IMU,-51.27,-16.60,-1000.98,-1.24,-1.67,-0.65,-10.05,10.80,-31.05,28.1
2026/04/13 14:56:42.44,IMU,-43.46,-20.51,-1001.46,-1.42,-0.68,-0.73,-10.80,12.00,-32.10,28.2
2026/04/13 14:56:42.54,IMU,-47.85,-5.37,-1007.81,-1.11,0.33,-1.55,-10.65,10.20,-31.65,28.4
2026/04/13 14:56:42.64,IMU,-45.41,-11.23,-1008.30,-1.95,1.50,-0.29,-10.65,10.20,-30.90,28.3
2026/04/13 14:56:42.74,IMU,-56.15,-12.21,-999.51,-1.21,-0.31,2.27,-11.10,11.85,-30.45,28.4
2026/04/13 14:56:42.84,IMU,-39.06,-10.74,-1002.44,-2.59,0.30,-1.61,-9.90,9.90,-31.20,28.3
2026/04/13 14:56:42.94,IMU,-47.36,-16.60,-991.70,-2.17,-0.02,-0.24,-9.90,10.65,-31.20,28.2
2026/04/13 14:56:43.04,IMU,-32.23,-19.04,-1002.44,-0.50,-0.52,0.79,-10.50,10.80,-31.35,28.4
2026/04/13 14:56:43.14,IMU,-43.46,-6.35,-997.07,0.40,0.39,-2.43,-10.05,10.50,-31.05,28.4
2026/04/13 14:56:43.24,IMU,-42.48,-10.25,-1004.88,-1.11,-0.76,0.81,-13.20,8.10,-29.25,28.0
2026/04/13 14:56:43.34,IMU,-32.71,-20.02,-1006.35,-1.41,-1.31,0.47,-10.35,11.40,-31.20,28.2
2026/04/13 14:56:43.44,IMU,-44.92,-15.63,-1004.39,-0.59,-1.24,-2.70,-9.75,11.55,-32.10,28.4
2026/04/13 14:56:43.54,IMU,-43.46,-14.16,-1003.42,-0.55,0.63,-0.70,-9.60,10.95,-31.65,28.0
2026/04/13 14:56:43.64,IMU,-45.41,5.86,-997.56,0.45,0.56,2.09,-11.25,12.45,-30.30,28.2
2026/04/13 14:56:43.74,IMU,-34.18,-24.41,-1003.91,-1.14,-3.84,-1.82,-10.35,10.95,-30.90,28.2
2026/04/13 14:56:43.84,IMU,-51.27,-17.58,-996.58,-2.41,-0.44,0.11,-12.00,10.80,-33.30,28.4
2026/04/13 14:56:43.94,IMU,-32.71,-19.04,-995.61,-2.09,-2.57,0.76,-9.90,11.85,-30.90,28.4
2026/04/13 14:56:44.04,IMU,-46.88,-7.32,-995.12,-2.00,-0.32,1.47,-9.60,11.40,-31.95,28.2
2026/04/13 14:56:44.14,IMU,-45.90,-17.09,-999.02,-0.82,-1.69,0.77,-10.50,10.80,-32.55,28.2
2026/04/13 14:56:44.24,IMU,-40.04,-1.46,-1002.44,-1.04,0.90,-0.92,-12.75,7.65,-28.80,28.3
2026/04/13 14:56:44.34,IMU,-42.97,-3.42,-1003.42,0.98,-2.20,-2.57,-10.35,10.95,-32.40,28.2
2026/04/13 14:56:44.44,IMU,-40.04,-13.67,-1012.70,-0.98,-0.26,0.03,-10.80,10.50,-30.60,28.4
2026/04/13 14:56:44.54,IMU,-42.97,-12.21,-1007.32,-2.38,2.05,-0.18,-10.35,11.40,-31.65,28.3
2026/04/13 14:56:44.64,IMU,-41.02,-3.91,-1005.86,-0.95,-1.67,-0.63,-10.65,10.65,-33.45,28.2
2026/04/13 14:56:44.74,IMU,-36.62,-19.04,-1001.46,-3.32,-0.35,1.44,-10.05,10.50,-29.85,28.2
2026/04/13 14:56:44.84,IMU,-40.53,-5.37,-999.51,-1.12,-0.76,1.18,-11.10,11.85,-31.95,28.4
2026/04/13 14:56:44.94,IMU,-43.95,-12.70,-1012.70,0.31,-4.89,-1.79,-10.05,12.00,-32.10,28.0
2026/04/13 14:56:45.04,IMU,-42.48,-20.51,-996.09,-0.79,-0.59,-1.64,-10.65,11.40,-31.20,28.4
2026/04/13 14:56:45.14,IMU,-34.18,-8.79,-1008.79,-2.06,1.11,-1.22,-11.10,11.40,-31.65,28.3
2026/04/13 14:56:45.24,IMU,-37.60,-17.09,-1004.88,-0.27,-3.24,-0.53,-12.00,11.55,-31.05,28.1
2026/04/13 14:56:45.35,IMU,-40.04,-4.39,-997.07,-0.63,-0.34,-3.01,-11.55,10.80,-31.35,28.0
2026/04/13 14:56:45.45,IMU,-35.16,-21.48,-1001.46,-2.11,-0.45,0.16,-9.90,10.95,-31.65,27.9
2026/04/13 14:56:45.55,IMU,-51.27,-2.44,-1009.77,-0.91,0.91,-0.15,-8.85,11.40,-30.90,28.1
2026/04/13 14:56:45.65,IMU,-45.41,-13.67,-995.61,-1.00,1.14,-0.88,-11.10,10.95,-31.95,28.2
2026/04/13 14:56:45.75,IMU,-46.39,-11.72,-1006.84,-1.34,-0.37,2.51,-10.35,10.95,-31.20,28.2
2026/04/13 14:56:45.85,IMU,-40.04,-14.16,-999.02,-1.21,2.76,-1.65,-10.35,11.40,-30.45,28.1
2026/04/13 14:56:45.95,IMU,-40.53,-26.37,-999.02,-0.92,-1.50,1.57,-11.25,10.50,-32.10,28.3
2026/04/13 14:56:46.05,IMU,-42.48,-24.41,-1013.67,-1.55,-2.16,-2.00,-10.65,9.00,-31.65,28.4
2026/04/13 14:56:46.15,IMU,-48.83,-9.28,-1008.30,-1.15,-3.70,1.11,-10.05,10.50,-31.05,27.9
2026/04/13 14:56:46.25,IMU,-47.85,-16.60,-1012.21,-0.13,-0.95,-0.40,-10.80,10.80,-32.10,28.4
2026/04/13 14:56:46.35,IMU,-42.48,0.98,-1006.35,-0.85,-0.76,-3.20,-8.85,11.40,-31.95,28.4
2026/04/13 14:56:46.45,IMU,-41.50,-15.63,-998.54,-1.63,-1.60,-2.91,-9.60,11.40,-31.65,28.3
2026/04/13 14:56:46.55,IMU,-29.79,-14.65,-1004.88,-1.21,0.13,-1.37,-8.85,10.95,-30.90,28.4
2026/04/13 14:56:46.65,IMU,-49.80,-18.55,-996.09,-2.37,0.83,-1.53,-10.35,10.95,-31.95,28.4
2026/04/13 14:56:46.75,IMU,-44.92,-2.44,-985.84,-1.73,0.37,0.78,-10.50,10.50,-31.35,27.9
2026/04/13 14:56:46.85,IMU,-33.69,-16.60,-998.54,0.63,2.16,0.20,-11.55,11.55,-31.80,28.6
2026/04/13 14:56:46.95,IMU,-38.09,-18.55,-1007.32,-1.69,-1.46,-0.10,-10.50,10.05,-32.10,28.4
2026/04/13 14:56:47.05,IMU,-40.04,-9.28,-1012.70,-1.53,0.52,-1.62,-10.05,11.25,-33.30,28.0
2026/04/13 14:56:47.15,IMU,-36.62,-8.79,-1002.44,-0.53,-0.97,0.30,-10.05,10.80,-31.05,28.4
2026/04/13 14:56:47.25,IMU,-46.88,-9.77,-999.02,-0.48,0.25,1.68,-9.75,11.55,-31.05,28.4
2026/04/13 14:56:47.35,IMU,-37.11,-21.00,-1001.95,-2.02,0.66,-2.44,-10.05,10.05,-31.35,28.1
2026/04/13 14:56:47.45,IMU,-50.29,-7.32,-1007.32,-1.98,1.50,-0.95,-8.40,11.85,-31.80,28.2
2026/04/13 14:56:47.55,IMU,-38.57,-11.72,-997.07,-2.08,-0.05,-1.97,-9.60,11.85,-31.95,28.2
2026/04/13 14:56:47.65,IMU,-38.09,-17.09,-1007.32,0.33,0.05,0.28,-10.35,11.40,-31.20,28.0
2026/04/13 14:56:47.75,IMU,-29.30,-13.18,-1008.30,-0.86,-2.20,-0.99,-9.90,9.45,-30.45,28.2
2026/04/13 14:56:47.85,IMU,-39.55,-10.25,-1010.74,-2.82,-1.93,1.92,-10.50,12.45,-32.10,28.4
2026/04/13 14:56:47.95,IMU,-47.36,-10.25,-1008.79,0.14,-0.18,-1.31,-10.80,11.55,-31.80,28.2
2026/04/13 14:56:48.05,IMU,-40.53,-3.91,-1001.95,0.89,0.69,0.15,-9.90,10.95,-33.75,28.3
2026/04/13 14:56:48.15,IMU,-40.04,-11.23,-997.56,-2.40,-0.73,1.25,-9.30,10.80,-32.10,28.4
2026/04/13 14:56:48.25,IMU,-46.88,-3.91,-1009.77,-1.02,-2.71,-0.95,-9.30,11.55,-31.80,28.4
2026/04/13 14:56:48.35,IMU,-41.02,-8.79,-1011.72,-2.50,-0.66,1.77,-9.75,11.25,-31.80,28.4
2026/04/13 14:56:48.45,IMU,-39.06,-15.14,-999.02,-2.48,-1.66,-1.95,-11.40,10.95,-30.45,28.4
2026/04/13 14:56:48.55,IMU,-35.64,-5.86,-1009.28,-0.59,2.69,2.15,-10.50,10.80,-31.35,28.2
2026/04/13 14:56:48.65,IMU,-35.64,-19.53,-995.12,-1.22,-2.98,-0.02,-11.25,10.05,-32.10,28.2
2026/04/13 14:56:48.75,IMU,-37.60,-9.77,-998.05,-0.52,-0.15,-1.73,-11.85,9.90,-32.70,28.1
2026/04/13 14:56:48.85,IMU,-47.36,-8.30,-1009.77,-2.47,1.08,-2.63,-9.30,10.50,-32.10,28.1
2026/04/13 14:56:48.95,IMU,-30.27,-21.00,-998.05,-2.54,1.40,3.79,-11.10,10.65,-32.40,28.2
2026/04/13 14:56:49.05,IMU,-32.23,-7.81,-989.75,-1.73,-4.40,4.02,-10.80,9.60,-31.35,28.4
2026/04/13 14:56:49.16,IMU,-42.97,-10.74,-1009.77,1.02,3.40,-4.77,-9.90,10.95,-31.20,28.0
2026/04/13 14:56:49.26,IMU,-45.90,-5.86,-990.23,-2.95,0.21,1.30,-11.10,11.85,-31.20,28.4
2026/04/13 14:56:49.36,IMU,-43.95,-7.81,-1009.77,-1.63,-0.44,-0.01,-10.80,9.60,-31.35,28.5
2026/04/13 14:56:49.46,IMU,-40.53,-10.25,-997.56,-1.48,-0.61,-0.64,-9.90,11.40,-31.95,28.4
2026/04/13 14:56:49.56,IMU,-36.62,-20.02,-1003.42,-0.38,0.18,-1.79,-11.25,11.25,-31.05,28.1
2026/04/13 14:56:49.66,IMU,-45.90,-4.39,-997.56,-2.34,0.68,0.94,-9.90,11.40,-31.65,28.2
2026/04/13 14:56:49.76,IMU,-43.46,-18.55,-1009.77,0.11,-4.02,1.92,-9.90,10.95,-32.40,28.2
2026/04/13 14:56:49.86,IMU,-39.55,-2.93,-1021.97,-2.52,-0.51,-3.15,-10.35,11.85,-31.65,28.4
2026/04/13 14:56:49.96,IMU,-44.92,-2.93,-1005.37,-0.50,-1.31,-3.26,-10.35,9.45,-33.45,28.4
2026/04/13 14:56:50.06,IMU,-48.34,-15.63,-1003.91,-0.43,-1.56,-2.40,-10.35,10.95,-31.20,28.2
2026/04/13 14:56:50.16,IMU,-44.43,-8.79,-1003.42,-2.43,-2.77,-2.11,-11.10,10.65,-31.20,28.6
2026/04/13 14:56:50.26,IMU,-39.06,-23.44,-1000.00,-0.62,-1.44,-0.41,-11.10,10.65,-32.70,28.4
2026/04/13 14:56:50.36,IMU,-44.92,-20.02,-1012.70,-1.28,0.36,1.32,-12.60,9.45,-27.90,27.8
2026/04/13 14:56:50.46,IMU,-40.04,-1.95,-1000.00,-0.46,-1.18,-2.85,-10.35,10.95,-30.90,28.4
2026/04/13 14:56:50.56,IMU,-37.11,-14.16,-1011.72,-2.48,-0.58,0.18,-10.65,11.85,-31.95,28.4
2026/04/13 14:56:50.66,IMU,-40.53,-13.18,-1006.84,0.21,-2.46,-0.02,-10.35,9.45,-32.40,28.4
2026/04/13 14:56:50.76,IMU,-43.46,-25.39,-1002.44,-2.33,1.05,-1.69,-10.65,10.95,-30.90,28.3
2026/04/13 14:56:50.86,IMU,-41.99,-4.88,-1012.21,-0.85,-0.11,-1.14,-9.60,10.20,-31.20,28.4
2026/04/13 14:56:50.96,IMU,-45.41,-12.21,-1009.77,-0.59,-2.45,1.09,-10.65,9.90,-30.90,28.4
2026/04/13 14:56:51.06,IMU,-42.97,-12.70,-1004.88,-1.02,-2.03,0.79,-9.90,10.95,-33.75,28.4
2026/04/13 14:56:51.16,IMU,-44.43,-24.41,-1000.98,-1.66,1.15,1.31,-10.05,10.05,-32.85,28.4
2026/04/13 14:56:51.26,IMU,-40.04,-1.95,-1018.07,1.02,-0.05,-0.66,-10.50,11.25,-32.55,28.4
2026/04/13 14:56:51.36,IMU,-43.46,-15.14,-999.51,-2.54,-1.63,-0.98,-11.55,9.30,-29.55,28.5
2026/04/13 14:56:51.46,IMU,-43.46,-12.70,-1000.49,-1.57,-0.03,-1.61,-10.65,11.40,-32.40,28.2
2026/04/13 14:56:51.56,IMU,-39.06,-18.55,-995.61,0.01,0.60,1.88,-9.90,10.20,-31.35,28.4
2026/04/13 14:56:51.66,IMU,-51.76,-9.28,-1006.35,-0.88,-0.83,0.53,-9.90,10.65,-33.00,28.4
2026/04/13 14:56:51.76,IMU,-43.95,2.44,-1011.23,-1.21,-3.79,-4.02,-10.35,12.60,-31.20,28.3
2026/04/13 14:56:51.86,IMU,-49.32,-14.65,-1000.49,-1.57,-2.76,0.37,-10.35,10.95,-32.70,28.2
2026/04/13 14:56:51.96,IMU,-22.46,-15.14,-1009.28,0.76,-0.59,-5.64,-9.15,10.95,-32.40,28.4
2026/04/13 14:56:52.06,IMU,-29.30,-8.30,-1008.79,-0.08,-2.59,3.14,-9.60,11.85,-31.65,28.4
2026/04/13 14:56:52.16,IMU,-37.60,-21.97,-994.63,-0.41,-1.57,-1.82,-10.05,8.85,-30.60,28.4
2026/04/13 14:56:52.26,IMU,-34.18,-15.63,-992.19,-1.52,2.85,-0.53,-9.60,9.90,-31.95,28.3
2026/04/13 14:56:52.36,IMU,-36.62,-19.04,-996.09,-1.53,-0.84,2.70,-12.45,8.55,-24.75,28.2
2026/04/13 14:56:52.47,IMU,-32.23,-21.97,-1013.67,-2.10,-0.24,-0.55,-10.35,10.95,-31.20,28.0
2026/04/13 14:56:52.57,IMU,-58.11,-5.86,-998.05,-0.39,-0.44,-0.79,-10.05,10.05,-31.35,28.0
2026/04/13 14:56:52.67,IMU,-41.02,-23.93,-1005.86,-0.69,2.87,0.89,-9.90,11.40,-32.70,28.0
2026/04/13 14:56:52.77,IMU,-33.20,0.00,-1006.35,-1.10,0.11,-1.02,-11.10,9.90,-32.40,28.6
2026/04/13 14:56:52.87,IMU,-21.97,-15.63,-1005.86,-2.44,-0.79,0.67,-11.25,11.25,-32.55,28.4
2026/04/13 14:56:52.97,IMU,-41.99,-18.55,-1007.81,-1.82,-2.82,0.76,-10.50,10.50,-33.30,28.5
2026/04/13 14:56:53.07,IMU,-30.76,-14.16,-999.51,0.15,-1.50,-1.86,-10.50,10.05,-32.10,28.4
2026/04/13 14:56:53.17,IMU,-36.62,-6.35,-996.09,-0.69,0.74,-0.31,-10.05,12.00,-32.55,28.4
2026/04/13 14:56:53.27,IMU,-40.04,-18.55,-1006.35,-1.34,-1.60,-1.92,-10.65,10.95,-32.70,28.1
2026/04/13 14:56:53.37,IMU,-44.43,-8.79,-997.56,-0.60,-3.13,-0.63,-11.25,10.80,-32.55,28.5
2026/04/13 14:56:53.47,IMU,-34.67,-22.46,-1000.98,-1.27,-1.00,0.41,-10.50,11.25,-32.10,28.4
2026/04/13 14:56:53.57,IMU,-36.62,-15.14,-999.51,-1.57,0.69,-2.60,-9.90,11.40,-31.65,28.2
2026/04/13 14:56:53.67,IMU,-38.57,-4.88,-1000.00,-1.70,-1.09,0.68,-10.05,10.80,-31.35,28.4
2026/04/13 14:56:53.77,IMU,-44.43,-10.74,-997.56,-2.96,-2.12,3.19,-12.00,10.50,-30.30,28.3
2026/04/13 14:56:53.87,IMU,-32.23,-22.46,-1000.00,0.08,-1.71,1.54,-10.50,12.00,-31.35,28.1
2026/04/13 14:56:53.97,IMU,-41.99,-15.63,-1009.77,-0.27,-3.63,-0.69,-10.05,10.80,-31.80,28.4
2026/04/13 14:56:54.07,IMU,-38.09,-20.51,-1014.16,-0.89,-1.27,-1.02,-9.60,10.20,-31.95,28.3
2026/04/13 14:56:54.17,IMU,-47.36,-19.04,-998.54,-1.53,-1.05,-0.35,-9.15,10.65,-32.40,28.4
2026/04/13 14:56:54.27,IMU,-33.20,-14.65,-1003.42,-2.95,-0.42,1.23,-10.65,10.65,-31.95,28.4
2026/04/13 14:56:54.37,IMU,-47.36,-5.86,-995.61,-2.20,1.39,-2.15,-9.90,12.60,-33.45,28.4
2026/04/13 14:56:54.47,IMU,-47.85,-3.42,-1017.09,-1.76,-1.24,-1.05,-12.90,10.20,-29.70,28.2
2026/04/13 14:56:54.57,IMU,-50.78,-14.16,-1007.81,0.18,0.44,3.91,-10.35,10.95,-32.40,28.3
2026/04/13 14:56:54.67,IMU,-32.23,-6.84,-1012.21,-2.00,-0.36,-0.37,-10.35,10.95,-31.95,28.1
2026/04/13 14:56:54.77,IMU,-37.11,-10.25,-995.61,0.01,-2.45,-1.45,-10.35,11.85,-31.20,28.5
2026/04/13 14:56:54.87,IMU,-36.13,-20.51,-981.93,-1.06,1.85,-1.70,-10.65,10.65,-32.40,28.4
2026/04/13 14:56:54.97,IMU,-50.78,-10.25,-994.14,-1.97,-1.26,2.39,-9.15,10.65,-31.20,28.5
2026/04/13 14:56:55.07,IMU,-44.92,-25.39,-1004.39,-2.11,-0.05,0.43,-10.50,11.25,-32.85,28.1
2026/04/13 14:56:55.17,IMU,-46.39,-6.35,-997.07,-1.15,-0.41,2.21,-9.90,10.20,-31.95,28.5
2026/04/13 14:56:55.27,IMU,-23.44,-20.51,-980.96,-2.66,-1.92,0.12,-10.35,10.65,-31.20,28.2
2026/04/13 14:56:55.37,IMU,-55.66,-1.46,-996.09,-0.98,0.63,-0.90,-10.65,10.65,-31.20,28.4
2026/04/13 14:56:55.47,IMU,-33.69,-16.11,-1011.23,-1.90,0.03,-1.86,-11.55,10.80,-31.35,28.4
2026/04/13 14:56:55.57,IMU,-30.27,-7.81,-1008.79,-1.13,-3.13,-2.25,-10.80,11.55,-32.10,28.4
2026/04/13 14:56:55.67,IMU,-35.64,-13.18,-999.02,-1.24,-1.05,3.19,-10.50,10.50,-32.55,28.4
2026/04/13 14:56:55.77,IMU,-41.99,1.95,-1004.39,-2.27,0.42,-0.86,-11.10,10.95,-31.20,28.5
2026/04/13 14:56:55.87,IMU,-33.69,-10.74,-1008.30,-0.65,0.09,1.05,-10.50,11.55,-30.60,28.5
2026/04/13 14:56:55.97,IMU,-45.90,-14.16,-1005.37,-1.56,-0.43,-1.92,-10.80,10.80,-32.55,28.4
2026/04/13 14:56:56.07,IMU,-48.83,-10.74,-1001.95,-0.39,-0.55,-1.87,-10.35,9.90,-32.70,28.4
2026/04/13 14:56:56.18,IMU,-49.80,-6.84,-1001.95,-1.78,1.36,-1.01,-9.00,10.50,-31.35,28.4
2026/04/13 14:56:56.28,IMU,-39.06,-3.42,-1001.46,-0.13,-2.07,-0.90,-10.65,9.90,-32.40,28.4
2026/04/13 14:56:56.38,IMU,-43.46,-9.77,-1003.91,-0.05,-3.02,-0.97,-10.05,11.55,-31.35,28.4
2026/04/13 14:56:56.48,IMU,-44.92,2.44,-1005.37,0.69,-0.70,-1.37,-14.10,9.90,-27.45,28.1
2026/04/13 14:56:56.58,IMU,-57.13,-0.49,-991.21,-0.56,-2.59,1.92,-10.80,11.55,-30.60,28.0
2026/04/13 14:56:56.68,IMU,-38.09,-7.81,-992.68,-2.44,-0.47,-2.21,-10.05,11.25,-31.80,28.5
2026/04/13 14:56:56.78,IMU,-44.92,-11.72,-996.58,-0.15,-1.04,0.73,-11.10,11.85,-32.40,28.4
2026/04/13 14:56:56.88,IMU,-38.09,-22.46,-999.51,-1.04,-2.58,-0.09,-10.65,11.40,-31.65,28.4
2026/04/13 14:56:56.98,IMU,-44.92,-1.46,-1001.95,-3.49,-2.33,-1.29,-10.05,11.55,-32.10,28.6
2026/04/13 14:56:57.08,IMU,-31.25,-11.23,-1010.25,-3.08,-3.12,1.23,-9.75,11.55,-31.80,28.5
2026/04/13 14:56:57.18,IMU,-40.04,4.88,-1007.32,-2.31,-2.33,-2.44,-8.85,11.40,-30.90,28.2
2026/04/13 14:56:57.28,IMU,-40.04,-14.16,-1006.84,0.43,0.76,1.27,-11.10,10.20,-31.20,28.0
2026/04/13 14:56:57.38,IMU,-35.64,3.42,-1005.86,-0.85,-2.74,1.44,-9.15,10.95,-33.00,28.4
2026/04/13 14:56:57.48,IMU,-40.04,-20.02,-1013.18,-0.77,1.47,-4.50,-11.55,10.80,-32.55,28.4
2026/04/13 14:56:57.58,IMU,-37.60,-13.18,-1008.30,-2.02,-1.39,-2.10,-11.85,10.20,-31.65,28.4
2026/04/13 14:56:57.68,IMU,-46.88,-9.77,-995.12,-2.33,-0.80,-0.52,-10.05,10.80,-31.35,28.4
2026/04/13 14:56:57.78,IMU,-37.11,-9.28,-1006.84,-1.29,-2.34,0.90,-11.40,11.40,-31.95,28.2
2026/04/13 14:56:57.88,IMU,-21.97,-11.72,-995.12,-0.57,-1.92,-1.11,-9.90,11.40,-31.65,28.6
2026/04/13 14:56:57.98,IMU,-40.53,-6.35,-996.09,0.13,0.05,-2.42,-10.80,11.55,-31.05,28.4
2026/04/13 14:56:58.08,IMU,-46.88,-11.23,-1006.84,-1.34,-0.80,0.01,-10.80,10.80,-31.80,28.2
2026/04/13 14:56:58.18,IMU,-36.62,-16.11,-1000.00,-2.34,0.21,-3.08,-9.30,11.25,-32.10,28.2
2026/04/13 14:56:58.28,IMU,-42.97,-13.67,-999.02,-2.41,0.15,0.40,-9.90,10.65,-32.40,28.2
2026/04/13 14:56:58.38,IMU,-29.79,-5.37,-1004.88,-1.72,-0.47,-2.02,-10.80,9.60,-32.10,28.3
2026/04/13 14:56:58.49,IMU,-36.62,-5.86,-1005.37,-1.63,-1.10,-0.21,-10.80,10.80,-31.05,28.4
2026/04/13 14:56:58.59,IMU,-47.85,-26.86,-995.61,-0.18,-1.33,-1.19,-10.35,10.65,-30.45,28.3
2026/04/13 14:56:58.69,IMU,-43.95,-12.21,-1003.91,-1.36,0.09,2.02,-10.35,11.40,-31.95,28.4
2026/04/13 14:56:58.79,IMU,-36.13,2.44,-1000.00,-2.32,-1.81,-0.03,-9.75,11.25,-32.55,28.4
2026/04/13 14:56:58.89,IMU,-32.71,-14.65,-1013.18,-2.08,-0.64,-2.08,-10.80,10.50,-32.55,28.2
2026/04/13 14:56:58.99,IMU,-42.48,3.91,-1005.86,-0.59,0.88,-0.55,-10.50,10.80,-31.35,28.1
2026/04/13 14:56:59.09,IMU,-41.50,-13.67,-994.14,-1.18,-2.28,-0.11,-10.80,10.50,-31.80,27.9
2026/04/13 14:56:59.19,IMU,-48.83,-15.14,-1000.00,-1.37,-2.78,-2.37,-9.75,11.25,-32.85,28.3
2026/04/13 14:56:59.29,IMU,-35.64,-16.60,-995.61,-0.95,-1.56,-0.08,-10.35,10.20,-31.95,28.2
2026/04/13 14:56:59.39,IMU,-43.95,-18.07,-991.70,-1.99,2.15,-2.85,-10.05,11.25,-31.05,28.6
2026/04/13 14:56:59.49,IMU,-34.67,4.88,-1007.81,0.33,0.84,0.99,-11.25,11.25,-31.80,28.4
2026/04/13 14:56:59.59,IMU,-38.09,4.88,-1000.49,-0.14,-0.21,0.38,-10.35,12.15,-32.40,28.1
2026/04/13 14:56:59.69,IMU,-38.09,-3.42,-1004.39,-3.61,-1.00,-2.37,-8.85,10.95,-31.95,28.4
2026/04/13 14:56:59.79,IMU,-37.60,-18.55,-999.02,-2.56,-1.50,-1.50,-10.80,10.80,-31.35,28.3
2026/04/13 14:56:59.89,IMU,-46.88,0.00,-1004.39,-1.76,1.52,-2.79,-9.30,10.80,-32.55,28.2
2026/04/13 14:56:59.99,IMU,-40.53,-6.84,-997.07,0.16,-0.58,-1.11,-9.60,10.65,-31.65,28.4
2026/04/13 14:57:00.09,IMU,-43.95,-8.79,-1000.00,0.14,-1.71,0.56,-9.75,11.55,-31.35,28.6
2026/04/13 14:57:00.19,IMU,-39.06,-11.72,-1004.88,-0.70,-1.66,0.59,-10.65,10.95,-32.40,28.5
2026/04/13 14:57:00.29,IMU,-37.11,-23.44,-994.63,-0.79,-3.16,-0.36,-10.50,11.25,-32.85,28.7
2026/04/13 14:57:00.39,IMU,-39.55,-20.02,-1004.39,-2.46,-1.01,0.92,-10.50,12.45,-31.80,28.4
2026/04/13 14:57:00.49,IMU,-38.09,-22.95,-995.12,-1.21,-0.79,-1.60,-10.65,10.20,-31.65,28.1
2026/04/13 14:57:00.59,IMU,-40.53,-20.02,-997.07,1.31,-0.29,0.85,-11.25,9.60,-31.80,28.3
2026/04/13 14:57:00.69,IMU,-31.25,-17.58,-1004.39,-2.50,-2.05,-3.08,-10.50,10.05,-31.80,28.2
2026/04/13 14:57:00.79,IMU,-49.80,-15.14,-999.51,-1.34,0.53,-1.77,-9.90,10.20,-31.20,28.2
2026/04/13 14:57:00.89,IMU,-43.95,-19.04,-992.68,-1.71,-2.47,-2.34,-9.60,10.65,-31.20,28.3
2026/04/13 14:57:00.99,IMU,-43.95,-10.74,-998.05,-0.16,0.48,0.40,-10.50,10.80,-32.10,28.4
2026/04/13 14:57:01.09,IMU,-51.27,4.39,-1001.46,-1.99,-1.52,-1.08,-9.60,10.65,-33.75,28.2
2026/04/13 14:57:01.19,IMU,-20.51,-11.72,-1003.42,-0.04,-1.52,-2.71,-10.35,10.65,-31.65,28.2
2026/04/13 14:57:01.29,IMU,-39.55,-6.84,-1016.11,-2.61,-1.46,-0.55,-10.50,10.80,-31.35,28.2
2026/04/13 14:57:01.39,IMU,-28.81,-9.77,-1009.77,-1.47,-0.87,-3.02,-10.50,10.05,-32.10,28.4
2026/04/13 14:57:01.49,IMU,-39.06,-20.51,-992.68,-2.46,-0.40,-1.31,-10.50,10.05,-31.05,28.3
2026/04/13 14:57:01.59,IMU,-39.55,0.00,-1008.30,1.85,0.55,-1.44,-9.60,10.20,-33.00,28.4
2026/04/13 14:57:01.69,IMU,-41.02,-10.74,-987.79,0.40,0.57,-0.41,-11.25,10.05,-31.80,28.2
2026/04/13 14:57:01.79,IMU,-50.29,-11.23,-1008.79,-1.50,-0.50,-0.40,-10.35,10.65,-31.95,28.4
2026/04/13 14:57:01.89,IMU,-32.23,-1.95,-1002.93,0.92,-2.21,0.03,-9.75,9.60,-32.10,28.4
2026/04/13 14:57:01.99,IMU,-46.88,-8.30,-1001.46,-0.01,1.47,-0.24,-9.75,10.80,-32.55,28.4
2026/04/13 14:57:02.09,IMU,-46.39,-8.30,-1000.49,-0.93,0.39,-2.95,-10.05,10.50,-31.80,28.4
2026/04/13 14:57:02.20,IMU,-26.37,-15.14,-997.56,0.45,-3.70,-0.59,-10.65,10.95,-31.20,28.4
2026/04/13 14:57:02.30,IMU,-39.06,-18.07,-1014.16,-2.53,-0.51,0.33,-10.05,11.25,-32.10,28.3
2026/04/13 14:57:02.40,IMU,-44.92,-11.72,-999.02,-1.26,0.41,-1.16,-9.75,10.50,-31.80,28.6
2026/04/13 14:57:02.50,IMU,-38.09,-19.04,-1001.95,-2.60,-0.06,1.01,-11.25,11.55,-32.10,28.0
2026/04/13 14:57:02.60,IMU,-38.09,-18.07,-1007.32,0.92,-1.69,1.62,-11.25,10.80,-32.55,28.4
2026/04/13 14:57:02.70,IMU,-36.62,-12.70,-999.51,-1.26,-1.02,1.90,-10.50,10.05,-30.30,28.4
2026/04/13 14:57:02.80,IMU,-41.99,-20.51,-1009.77,-1.74,-2.64,0.82,-10.50,10.80,-32.10,28.6
2026/04/13 14:57:02.90,IMU,-41.99,0.49,-1005.37,-1.13,-3.53,1.44,-9.75,9.60,-31.35,28.2
2026/04/13 14:57:03.00,IMU,-38.09,-13.67,-997.07,0.42,-0.79,0.89,-9.15,10.65,-30.90,28.2
2026/04/13 14:57:03.10,IMU,-37.60,-2.93,-1005.37,-0.30,-1.21,-1.44,-9.75,12.00,-32.10,28.2
2026/04/13 14:57:03.20,IMU,-37.11,-0.98,-1008.30,-1.18,-2.24,-1.42,-9.30,8.85,-32.10,28.5
2026/04/13 14:57:03.30,IMU,-38.57,-14.65,-1004.39,-1.05,-1.20,2.44,-11.55,10.50,-32.10,28.1
2026/04/13 14:57:03.40,IMU,-27.34,-14.16,-1005.86,-2.08,1.62,-2.15,-10.65,11.40,-31.65,28.5
2026/04/13 14:57:03.50,IMU,-46.88,-6.84,-1008.30,-3.22,-0.44,-0.50,-9.15,10.65,-33.00,28.4
2026/04/13 14:57:03.60,IMU,-45.41,-14.16,-1011.72,-0.86,-1.22,-0.47,-12.15,9.00,-28.65,28.4
2026/04/13 14:57:03.70,IMU,-34.18,-6.35,-994.14,-0.88,-0.71,-4.06,-9.90,10.20,-32.40,28.4
2026/04/13 14:57:03.80,IMU,-44.43,-13.67,-998.54,-1.43,-2.04,0.85,-9.90,11.40,-31.95,28.4
2026/04/13 14:57:03.90,IMU,-37.11,-4.39,-1011.72,0.94,1.63,1.12,-10.35,10.95,-31.95,28.4
2026/04/13 14:57:04.00,IMU,-47.36,-20.02,-1003.91,-0.14,-3.49,-1.58,-9.00,10.80,-31.80,28.4
2026/04/13 14:57:04.10,IMU,-45.41,-0.98,-1004.88,-0.83,1.95,-0.02,-10.80,11.55,-32.55,28.4
2026/04/13 14:57:04.20,IMU,-42.97,-7.81,-1001.46,-1.37,-0.76,-3.21,-10.05,10.50,-32.10,28.4
2026/04/13 14:57:04.30,IMU,-38.09,-11.72,-1002.93,-2.76,-1.03,-1.83,-9.60,10.95,-30.90,28.4
2026/04/13 14:57:04.40,IMU,-39.55,-13.67,-995.61,-0.44,-0.02,-1.63,-9.90,10.65,-31.65,28.2
2026/04/13 14:57:04.50,IMU,-45.41,-6.35,-994.14,-0.64,-1.08,1.96,-9.30,10.80,-31.80,28.5
2026/04/13 14:57:04.60,IMU,-35.64,-6.84,-987.79,-1.25,1.04,2.53,-9.30,10.80,-30.60,28.6
2026/04/13 14:57:04.70,IMU,-49.80,-15.14,-998.05,-2.02,0.72,-1.23,-10.05,11.25,-32.85,28.4
2026/04/13 14:57:04.80,IMU,-40.53,-5.86,-1013.18,-1.79,-0.58,0.18,-10.50,10.80,-31.80,28.4
2026/04/13 14:57:04.90,IMU,-47.36,-22.46,-1007.32,-0.61,0.92,-0.94,-9.75,11.55,-31.35,28.3
2026/04/13 14:57:05.00,IMU,-36.13,-12.70,-1004.88,-2.65,-0.56,-1.06,-10.35,10.65,-31.65,28.4
2026/04/13 14:57:05.10,IMU,-45.90,-13.18,-1013.67,-0.90,-1.27,1.60,-10.50,11.25,-31.35,28.1
2026/04/13 14:57:05.20,IMU,-43.46,-17.58,-1005.37,-2.15,0.88,-2.17,-9.90,12.60,-32.40,28.4
2026/04/13 14:57:05.30,IMU,-29.30,-4.88,-1005.86,0.25,-1.40,0.28,-10.05,10.80,-31.80,28.4
2026/04/13 14:57:05.40,IMU,-35.64,-17.58,-999.02,-1.30,-1.77,2.42,-9.90,12.90,-31.95,28.5
2026/04/13 14:57:05.50,IMU,-40.04,-13.18,-999.02,-0.53,-0.67,-1.80,-9.90,10.20,-30.90,28.4
2026/04/13 14:57:05.61,IMU,-51.27,-22.95,-1013.18,1.12,2.21,-1.89,-10.05,11.25,-30.30,28.5
2026/04/13 14:57:05.71,IMU,-35.64,-5.86,-997.07,-2.60,0.24,-1.64,-9.90,11.40,-31.20,28.3
2026/04/13 14:57:05.81,IMU,-46.39,-2.93,-997.56,-0.14,0.68,1.11,-10.35,11.85,-32.40,28.4
2026/04/13 14:57:05.91,IMU,-34.18,-10.74,-998.05,-2.19,-0.55,-2.12,-10.50,10.80,-31.80,28.1
2026/04/13 14:57:06.01,IMU,-45.90,-14.16,-1008.30,-2.41,-0.82,1.56,-10.65,11.40,-31.20,28.2
2026/04/13 14:57:06.11,IMU,-43.46,-6.84,-1008.30,-1.03,-0.69,2.02,-10.50,11.25,-31.35,28.4
2026/04/13 14:57:06.21,IMU,-31.25,-22.46,-1004.88,-0.56,-0.35,-1.45,-10.50,11.55,-31.80,28.4
2026/04/13 14:57:06.31,IMU,-35.16,-5.37,-999.51,-2.48,0.06,0.06,-10.65,10.95,-31.65,28.2
2026/04/13 14:57:06.41,IMU,-37.60,-18.07,-1011.23,-1.92,-0.73,0.48,-10.05,10.50,-31.35,28.7
2026/04/13 14:57:06.51,IMU,-43.95,-15.63,-1002.44,-0.97,0.31,-0.09,-10.80,11.55,-30.60,28.4
2026/04/13 14:57:06.62,IMU,-59.57,-14.65,-995.61,-0.85,-1.31,0.72,-10.65,9.00,-31.65,28.1
2026/04/13 14:57:06.72,IMU,-47.36,-21.00,-1003.91,-2.08,-0.15,0.60,-11.10,11.85,-32.40,28.4
2026/04/13 14:57:06.82,IMU,-44.92,-5.86,-1002.93,-0.57,2.27,-3.58,-11.10,8.70,-32.70,28.4
2026/04/13 14:57:06.92,IMU,-40.53,-4.39,-995.12,-1.90,-1.01,1.24,-11.25,11.25,-31.35,28.5
2026/04/13 14:57:07.02,IMU,-41.99,-6.84,-1010.74,-3.64,-1.67,-0.08,-9.90,10.20,-31.20,28.3
2026/04/13 14:57:07.12,IMU,-39.55,-13.67,-1003.91,-1.85,1.64,0.23,-9.75,11.25,-30.60,28.4
2026/04/13 14:57:07.22,IMU,-34.67,-8.30,-1000.49,-0.68,-1.59,-0.08,-10.35,12.15,-32.40,28.4
2026/04/13 14:57:07.32,IMU,-38.57,-10.74,-1004.88,-1.73,-0.37,-1.66,-10.65,10.65,-31.20,28.2
2026/04/13 14:57:07.42,IMU,-46.39,-20.02,-1000.00,-2.74,0.08,1.65,-9.90,11.40,-30.90,28.7
2026/04/13 14:57:07.52,IMU,-44.43,-6.35,-1004.39,-1.15,-2.80,-1.62,-11.85,10.20,-31.20,28.5
2026/04/13 14:57:07.62,IMU,-55.66,-15.63,-1007.32,0.08,-0.09,-2.64,-10.65,10.95,-32.70,28.5
2026/04/13 14:57:07.72,IMU,-41.02,-13.18,-1000.98,-2.08,-0.81,1.44,-10.80,10.80,-32.10,28.3
2026/04/13 14:57:07.82,IMU,-28.32,-31.74,-1003.91,-0.06,-1.61,-0.62,-11.25,10.80,-32.55,28.3
2026/04/13 14:57:07.92,IMU,-35.64,-18.55,-1004.39,0.34,-4.50,0.87,-10.65,10.20,-31.65,28.1
2026/04/13 14:57:08.02,IMU,-37.60,-16.11,-1007.81,-1.12,-0.83,1.28,-9.90,10.65,-31.95,28.4
2026/04/13 14:57:08.12,IMU,-39.55,-12.70,-1010.74,-0.62,-4.14,0.08,-10.80,11.25,-31.80,28.5
2026/04/13 14:57:08.22,IMU,-42.97,-3.91,-1013.67,-0.05,-2.66,-3.08,-9.30,10.50,-32.10,28.4
2026/04/13 14:57:08.32,IMU,-32.71,-3.91,-1014.16,-2.74,-2.11,-1.20,-10.80,11.25,-31.35,28.4
2026/04/13 14:57:08.42,IMU,-44.92,-21.48,-999.02,-3.43,0.76,-1.30,-9.90,10.65,-32.40,28.5
2026/04/13 14:57:08.52,IMU,-42.48,-10.25,-1000.49,-1.39,-1.65,-0.38,-11.55,11.25,-31.35,28.2
2026/04/13 14:57:08.62,IMU,-28.81,-11.23,-1005.86,-2.51,-1.64,-2.79,-11.25,11.55,-32.55,28.2
2026/04/13 14:57:08.72,IMU,-41.02,-8.30,-1005.86,-1.62,0.96,0.22,-10.05,11.25,-31.05,28.4
2026/04/13 14:57:08.82,IMU,-42.48,-7.32,-1014.65,-3.07,-1.82,-3.76,-10.65,10.20,-31.65,28.4
2026/04/13 14:57:08.92,IMU,-43.46,-13.67,-1010.25,-2.25,-0.88,-6.05,-10.50,10.80,-31.35,28.4
2026/04/13 14:57:09.02,IMU,-41.99,-9.28,-1015.63,-2.85,0.03,1.97,-10.50,11.25,-31.05,28.6
2026/04/13 14:57:09.12,IMU,-42.97,-17.58,-993.65,-1.46,-0.33,-1.45,-10.65,10.95,-31.65,28.6
2026/04/13 14:57:09.22,IMU,-37.60,-5.86,-992.68,-0.99,-2.68,-1.81,-9.15,10.20,-31.95,28.4
2026/04/13 14:57:09.32,IMU,-52.73,-4.88,-1005.86,-1.15,-3.55,0.63,-10.50,10.50,-31.80,28.4
2026/04/13 14:57:09.42,IMU,-41.02,-0.49,-1003.42,-2.81,0.92,-1.02,-9.90,9.90,-32.40,28.4
2026/04/13 14:57:09.52,IMU,-30.76,-5.37,-1058.59,-0.95,8.52,-0.05,-11.10,10.65,-31.65,28.5
2026/04/13 14:57:09.62,IMU,-35.16,-12.70,-1057.62,-0.83,0.37,-0.37,-10.65,10.65,-28.95,28.6
2026/04/13 14:57:09.72,IMU,-40.53,-4.39,-1017.58,-1.44,-0.53,-1.37,-11.25,10.80,-31.80,28.4
2026/04/13 14:57:09.82,IMU,-36.13,-13.67,-1006.84,-0.20,-0.08,-0.73,-9.90,10.65,-30.90,28.0
2026/04/13 14:57:09.92,IMU,-47.36,-9.77,-1001.46,-1.72,-0.28,-0.30,-12.00,12.00,-32.10,28.4
2026/04/13 14:57:10.02,IMU,-33.20,-20.51,-1014.16,-0.81,-0.97,0.86,-9.30,11.55,-31.35,28.3
2026/04/13 14:57:10.12,IMU,-43.46,-11.23,-1001.95,-0.62,-1.55,-0.92,-10.80,12.75,-31.35,28.5
2026/04/13 14:57:10.23,IMU,-41.99,-14.16,-998.05,-0.33,-0.35,-1.52,-9.90,10.65,-30.90,28.5
2026/04/13 14:57:10.33,IMU,-36.13,-18.55,-1001.95,-1.07,-1.05,0.45,-10.35,10.20,-31.95,28.4
2026/04/13 14:57:10.43,IMU,-35.64,-13.67,-991.70,-0.64,-0.46,-1.30,-12.00,11.55,-31.05,28.4
2026/04/13 14:57:10.53,IMU,-32.23,-5.37,-1006.35,-1.34,0.45,0.85,-9.30,10.80,-32.10,28.5
2026/04/13 14:57:10.63,IMU,-27.83,-60.55,-933.11,-1.24,0.78,0.65,-10.35,8.70,-30.90,28.6
2026/04/13 14:57:10.73,IMU,-52.73,-10.25,-966.31,-0.67,-1.50,-0.11,-11.25,11.25,-29.85,28.4
2026/04/13 14:57:10.83,IMU,-40.04,2.93,-1020.51,-0.06,1.94,-2.47,-9.00,11.55,-31.80,28.5
2026/04/13 14:57:10.93,IMU,-47.85,-10.74,-1006.35,0.44,1.19,1.01,-10.35,9.45,-31.20,28.6
2026/04/13 14:57:11.03,IMU,-47.36,2.44,-1008.79,-0.64,-1.94,0.08,-10.65,11.40,-31.65,28.4
2026/04/13 14:57:11.13,IMU,-41.99,-7.81,-996.09,-1.00,0.56,-1.72,-10.65,11.40,-33.00,28.5
2026/04/13 14:57:11.23,IMU,-37.11,-0.49,-1004.88,-1.88,-0.22,-0.52,-11.25,9.60,-31.35,28.4
2026/04/13 14:57:11.33,IMU,-42.48,-31.25,-1009.77,-1.60,1.42,1.61,-9.90,10.95,-32.40,28.5
2026/04/13 14:57:11.43,IMU,-44.92,-11.72,-1004.88,-2.47,-1.48,2.55,-10.80,10.05,-31.05,28.5
2026/04/13 14:57:11.53,IMU,-40.53,-25.39,-990.23,-2.10,1.80,0.43,-9.60,10.20,-32.40,28.4
2026/04/13 14:57:11.63,IMU,-34.67,-10.74,-1002.93,-1.51,-2.11,-0.50,-10.35,10.95,-31.65,28.4
2026/04/13 14:57:11.73,IMU,-25.88,-3.91,-907.71,0.91,-0.63,0.60,-13.65,8.25,-28.65,28.4
2026/04/13 14:57:11.83,IMU,-43.95,-30.27,-1028.81,0.22,1.81,0.08,-10.65,10.95,-32.40,28.5
2026/04/13 14:57:11.93,IMU,-35.16,-18.55,-1016.60,-0.85,2.05,-1.56,-10.80,10.05,-31.80,28.3
2026/04/13 14:57:12.03,IMU,-41.99,-20.51,-1005.37,-2.95,-0.11,-1.01,-9.90,10.20,-31.65,28.4
2026/04/13 14:57:12.13,IMU,-48.34,-15.63,-1009.28,-1.53,-1.61,-4.84,-11.55,9.60,-32.85,28.5
2026/04/13 14:57:12.23,IMU,-45.41,-2.44,-1003.42,-1.66,0.10,-0.24,-10.05,9.30,-29.55,28.4
2026/04/13 14:57:12.33,IMU,-31.74,-15.63,-998.54,-1.98,1.98,-0.11,-9.30,11.55,-31.80,28.5
2026/04/13 14:57:12.43,IMU,-47.85,-19.53,-1007.81,-2.34,-2.87,0.45,-9.75,10.80,-31.05,28.1
2026/04/13 14:57:12.53,IMU,-39.06,-4.39,-999.02,-0.89,0.44,-1.34,-10.80,10.80,-32.10,28.2
2026/04/13 14:57:12.63,IMU,-41.50,-26.37,-1006.84,-1.62,0.48,-0.38,-9.75,11.55,-31.05,28.0
2026/04/13 14:57:12.73,IMU,-38.57,-13.18,-997.56,-2.18,-0.63,-1.44,-9.15,10.95,-31.20,28.4
2026/04/13 14:57:12.83,IMU,-47.85,-19.04,-998.54,-0.44,-1.44,-0.86,-10.35,10.95,-30.90,28.6
2026/04/13 14:57:12.93,IMU,-35.64,-20.51,-996.09,-1.30,-1.76,-4.10,-10.80,11.55,-31.35,28.6
2026/04/13 14:57:13.03,IMU,-49.32,-14.65,-995.12,-1.17,0.91,-0.72,-9.75,11.25,-31.80,28.6
2026/04/13 14:57:13.13,IMU,-31.74,-15.14,-1010.74,-0.99,0.08,-1.67,-9.00,10.50,-30.60,28.6
2026/04/13 14:57:13.23,IMU,-41.99,-12.70,-1005.86,-1.32,-1.82,-3.05,-9.00,10.50,-31.35,28.4
2026/04/13 14:57:13.33,IMU,-45.41,-19.04,-995.12,-1.64,-1.92,-0.65,-11.40,9.90,-32.70,28.4
2026/04/13 14:57:13.43,IMU,-41.99,-5.86,-1017.58,-1.34,-2.10,-2.46,-10.65,11.40,-31.65,28.5
2026/04/13 14:57:13.54,IMU,-30.27,-2.44,-1000.00,-3.08,-2.76,-1.30,-11.10,8.25,-31.65,28.4
2026/04/13 14:57:13.64,IMU,-39.06,-12.70,-998.54,-0.95,-0.45,1.40,-8.40,10.20,-31.65,28.4
2026/04/13 14:57:13.74,IMU,-46.39,-21.97,-1016.60,-1.85,1.26,-0.74,-10.50,10.50,-33.30,28.4
2026/04/13 14:57:13.84,IMU,-46.88,-16.11,-998.05,-1.76,-2.28,0.79,-9.60,11.40,-31.95,28.4
2026/04/13 14:57:13.94,IMU,-35.64,-18.07,-1003.91,-2.82,-0.82,-0.82,-9.75,10.80,-31.35,28.4
2026/04/13 14:57:14.04,IMU,-28.81,-18.55,-1002.93,-2.86,0.47,-3.92,-10.05,10.50,-30.60,28.6
2026/04/13 14:57:14.14,IMU,-25.88,-10.74,-996.58,-0.01,-0.10,-3.06,-10.65,11.40,-31.20,28.4
2026/04/13 14:57:14.24,IMU,-36.13,-10.25,-997.56,-0.35,-4.78,-1.88,-10.35,10.20,-32.40,28.4
2026/04/13 14:57:14.34,IMU,-50.78,-18.55,-1014.65,-3.37,1.98,-0.84,-9.75,10.05,-31.05,28.6
2026/04/13 14:57:14.44,IMU,-44.92,-2.44,-1018.07,0.14,2.10,1.69,-9.30,11.55,-31.80,28.6
2026/04/13 14:57:14.54,IMU,-32.23,-14.16,-1007.32,0.93,0.08,-1.26,-9.75,10.50,-32.55,28.2
2026/04/13 14:57:14.64,IMU,-38.09,-9.28,-1002.93,-2.97,-1.08,-2.94,-9.00,11.25,-31.05,28.4
2026/04/13 14:57:14.74,IMU,-39.55,-21.48,-1003.42,-0.18,1.25,-2.91,-10.05,12.45,-31.35,28.4
2026/04/13 14:57:14.84,IMU,-36.13,-11.72,-1000.49,-0.08,-0.44,-1.40,-9.90,10.65,-31.20,28.6
2026/04/13 14:57:14.94,IMU,-40.04,-14.65,-999.02,0.47,-0.99,1.95,-11.10,11.40,-31.95,28.4
2026/04/13 14:57:15.04,IMU,-34.18,-9.77,-996.09,-1.34,-1.61,0.01,-10.35,11.85,-30.90,28.5
2026/04/13 14:57:15.14,IMU,-43.46,-14.65,-996.58,-1.21,-1.44,-1.81,-10.65,10.65,-30.45,28.3
2026/04/13 14:57:15.24,IMU,-49.32,-8.30,-1003.42,-0.76,-0.53,-3.85,-9.30,11.25,-31.05,28.4
2026/04/13 14:57:15.34,IMU,-43.95,-23.93,-1006.35,-2.78,-2.32,-1.88,-8.85,10.95,-30.90,28.5
2026/04/13 14:57:15.44,IMU,-35.64,-14.16,-1007.81,-2.80,-1.36,-0.19,-9.15,11.40,-31.65,28.5
2026/04/13 14:57:15.54,IMU,-52.25,-16.11,-1004.39,-3.03,1.54,0.41,-9.00,9.60,-32.10,28.6
2026/04/13 14:57:15.64,IMU,-49.80,-8.79,-1008.30,-0.92,-2.36,-0.75,-10.80,10.50,-32.10,28.4
2026/04/13 14:57:15.74,IMU,-41.02,-10.25,-1001.46,-0.88,-3.37,-0.98,-10.35,9.45,-31.65,28.3
2026/04/13 14:57:15.84,IMU,-44.43,3.42,-1011.23,-0.79,-1.40,1.34,-10.65,11.40,-31.65,28.5
2026/04/13 14:57:15.94,IMU,-42.97,-12.21,-1001.95,-2.37,-3.28,-1.96,-8.55,9.60,-32.10,28.6
2026/04/13 14:57:16.04,IMU,-52.25,-11.72,-990.72,-1.65,-1.45,0.60,-10.80,9.60,-31.80,28.5
2026/04/13 14:57:16.14,IMU,-37.60,-7.81,-998.05,0.85,0.20,-0.79,-10.50,10.80,-32.10,28.4
2026/04/13 14:57:16.24,IMU,-36.62,-9.77,-1011.23,-1.48,1.31,-4.03,-11.10,10.20,-30.45,28.4
2026/04/13 14:57:16.34,IMU,-28.81,-5.86,-997.56,0.56,1.79,-1.47,-10.50,10.50,-30.60,28.2
2026/04/13 14:57:16.44,IMU,-41.99,-15.63,-1003.42,0.04,-2.24,0.22,-10.05,11.25,-32.10,28.3
2026/04/13 14:57:16.54,IMU,-29.79,-22.95,-1003.42,-2.33,-1.24,-0.82,-8.55,10.05,-31.05,28.7
2026/04/13 14:57:16.64,IMU,-45.90,-20.02,-1004.39,0.54,-2.68,2.66,-9.15,10.95,-30.90,28.4
2026/04/13 14:57:16.74,IMU,-43.95,-18.07,-994.14,-1.05,2.77,-0.34,-9.90,10.50,-30.60,28.4
2026/04/13 14:57:16.84,IMU,-46.39,-11.23,-998.05,-0.06,-2.02,-0.70,-9.75,11.55,-33.30,28.4
2026/04/13 14:57:16.94,IMU,-30.76,-12.70,-999.51,-0.59,0.02,-3.20,-9.90,10.65,-30.45,28.5
2026/04/13 14:57:17.04,IMU,-31.25,-19.53,-1004.88,-1.24,-2.00,1.28,-10.05,10.80,-32.55,28.0
2026/04/13 14:57:17.15,IMU,-31.25,-12.21,-996.09,-2.67,1.37,-1.49,-10.05,10.50,-31.35,28.2
2026/04/13 14:57:17.25,IMU,-29.30,-6.35,-1010.74,-0.92,-0.74,-0.36,-11.10,11.40,-31.95,28.4
2026/04/13 14:57:17.35,IMU,-47.85,-7.32,-1020.51,0.04,-2.39,-1.27,-10.65,10.65,-31.65,28.6
2026/04/13 14:57:17.45,IMU,-55.18,-8.79,-1001.46,-0.36,-0.47,-4.24,-9.30,10.50,-30.60,28.4
2026/04/13 14:57:17.55,IMU,-41.02,-9.28,-994.63,-2.05,2.04,0.42,-10.35,10.20,-31.95,28.6
2026/04/13 14:57:17.65,IMU,-38.09,-16.60,-997.56,-1.54,-1.19,-0.40,-10.05,10.80,-32.55,28.6
2026/04/13 14:57:17.75,IMU,-46.39,-8.30,-1011.23,-0.69,-0.73,-1.01,-10.65,10.65,-30.90,28.2
2026/04/13 14:57:17.85,IMU,-42.97,-9.77,-1002.44,0.35,-0.69,1.24,-10.05,10.80,-31.05,28.7
2026/04/13 14:57:17.95,IMU,-36.62,-4.88,-993.65,-0.85,-1.66,-2.50,-9.90,11.85,-30.90,28.4
2026/04/13 14:57:18.05,IMU,-37.60,-16.60,-1003.42,-2.38,-0.27,2.05,-9.30,10.50,-31.35,28.4
2026/04/13 14:57:18.15,IMU,-54.20,-17.09,-1003.91,-2.02,1.26,-0.05,-9.15,9.90,-30.90,28.4
2026/04/13 14:57:18.25,IMU,-43.46,-13.18,-1001.95,-0.63,-3.49,-1.78,-10.50,10.80,-31.35,28.4
2026/04/13 14:57:18.35,IMU,-42.97,-9.28,-1001.46,-1.76,-0.59,-1.69,-8.85,10.20,-30.90,28.4
2026/04/13 14:57:18.45,IMU,-37.11,-14.16,-996.09,-2.76,0.11,2.21,-10.05,11.25,-31.05,28.4
2026/04/13 14:57:18.55,IMU,-39.55,-16.11,-997.56,-1.66,-0.50,0.63,-10.05,10.80,-31.35,28.6
2026/04/13 14:57:18.65,IMU,-37.60,-13.18,-1006.35,-2.12,0.19,0.34,-11.25,10.05,-32.10,28.4
2026/04/13 14:57:18.75,IMU,-33.69,-2.44,-1013.18,-2.42,-0.52,1.83,-10.50,10.50,-30.60,28.5
2026/04/13 14:57:18.85,IMU,-47.85,-17.58,-998.54,-1.40,-2.10,-0.46,-10.50,11.25,-32.55,28.0
2026/04/13 14:57:18.95,IMU,-48.34,-17.58,-998.54,-0.99,-1.09,-3.65,-10.50,9.60,-31.80,28.6
2026/04/13 14:57:19.05,IMU,-49.32,-15.14,-1005.37,-2.22,2.78,-3.24,-10.65,9.00,-30.45,28.3
2026/04/13 14:57:19.15,IMU,-34.18,-9.28,-997.56,-0.98,0.34,0.11,-9.90,9.90,-31.65,28.6
2026/04/13 14:57:19.25,IMU,-39.55,-13.67,-1009.28,-1.05,-1.14,-1.04,-10.35,10.65,-31.95,28.6
2026/04/13 14:57:19.35,IMU,-35.16,-9.28,-1001.95,-0.86,-3.72,-1.28,-10.05,10.05,-30.30,28.4
2026/04/13 14:57:19.45,IMU,-41.02,-12.21,-994.63,-1.88,-2.56,1.15,-9.90,10.95,-31.65,28.6
2026/04/13 14:57:19.55,IMU,-30.76,-9.77,-1004.88,-2.08,0.98,2.24,-11.10,9.00,-31.65,28.3
2026/04/13 14:57:19.65,IMU,-52.25,-11.23,-992.68,-0.51,-0.29,-2.28,-9.60,9.45,-30.90,28.6
2026/04/13 14:57:19.75,IMU,-36.62,-16.11,-1010.74,-0.15,-4.31,0.71,-9.75,10.80,-31.35,28.5
2026/04/13 14:57:19.86,IMU,-42.48,-23.93,-1009.28,-0.50,-1.66,-0.77,-12.75,6.90,-26.55,28.6
2026/04/13 14:57:19.96,IMU,-17.58,-6.35,-1000.00,-0.53,-1.43,-1.65,-10.80,10.20,-31.20,28.4
2026/04/13 14:57:20.06,IMU,-36.62,-7.32,-1004.88,-2.34,-2.55,0.44,-10.80,8.55,-31.35,28.2
2026/04/13 14:57:20.16,IMU,-34.67,-16.60,-995.61,-0.99,0.39,-1.40,-10.65,10.65,-31.95,28.6
2026/04/13 14:57:20.26,IMU,-43.95,-21.48,-1001.95,-0.28,-1.24,-1.17,-9.00,10.05,-31.80,28.4
2026/04/13 14:57:20.36,IMU,-39.06,-15.14,-1005.37,-0.21,-2.02,-1.08,-9.90,11.40,-31.65,28.5
2026/04/13 14:57:20.46,IMU,-48.83,-16.11,-1017.58,-2.21,-0.20,0.10,-10.05,12.00,-31.35,28.4
2026/04/13 14:57:20.57,IMU,-45.41,-16.11,-1005.86,-1.81,0.02,-0.91,-11.10,9.90,-31.65,28.4
2026/04/13 14:57:20.67,IMU,-38.09,-3.42,-1003.91,-0.31,1.08,0.31,-10.65,10.95,-31.65,28.2
2026/04/13 14:57:20.77,IMU,-45.90,-8.30,-1006.35,-3.56,-2.63,2.02,-9.75,10.50,-31.05,28.6
2026/04/13 14:57:20.87,IMU,-28.81,-5.86,-1007.32,-0.95,-0.27,-0.74,-10.80,10.80,-31.35,28.7
2026/04/13 14:57:20.97,IMU,-43.46,-5.37,-1008.79,-0.23,1.24,2.77,-11.25,10.80,-33.30,28.5
2026/04/13 14:57:21.07,IMU,-35.16,-19.04,-1002.93,-1.07,0.82,-1.47,-9.00,10.50,-32.10,28.6
2026/04/13 14:57:21.17,IMU,-43.95,-21.00,-1000.98,-0.37,-1.96,2.18,-10.50,9.60,-30.60,28.4
2026/04/13 14:57:21.27,IMU,-37.60,-17.58,-1003.42,-1.97,0.27,0.12,-10.80,10.50,-31.80,28.3
2026/04/13 14:57:21.37,IMU,-53.22,-2.44,-1009.77,-0.89,-1.86,1.87,-9.75,10.80,-31.35,28.6
2026/04/13 14:57:21.47,IMU,-45.90,-10.74,-1006.35,-2.79,0.68,0.03,-10.50,9.60,-31.80,28.5
2026/04/13 14:57:21.57,IMU,-5.86,147.46,-1244.14,-4.37,-0.85,-1.51,-10.50,10.05,-31.35,28.5
2026/04/13 14:57:21.67,IMU,-37.60,-22.95,-998.05,-1.04,0.72,-0.97,-9.75,12.00,-31.05,28.5
2026/04/13 14:57:21.77,IMU,-38.09,-17.09,-992.68,-1.32,-2.49,1.76,-10.35,9.90,-29.70,28.5
2026/04/13 14:57:21.87,IMU,-31.25,-7.81,-995.12,-0.72,-0.85,0.59,-10.50,11.25,-31.05,28.6
2026/04/13 14:57:21.97,IMU,-35.16,-6.84,-996.58,-1.58,0.40,-1.11,-11.40,9.90,-31.65,28.4
2026/04/13 14:57:22.07,IMU,-51.76,-15.14,-1003.91,-1.50,-0.23,-1.44,-8.10,11.40,-33.45,28.6
2026/04/13 14:57:22.17,IMU,-21.00,-12.21,-1003.91,-2.05,-1.86,-2.15,-10.05,10.80,-31.80,28.4
2026/04/13 14:57:22.27,IMU,-53.22,-7.81,-991.21,-2.34,1.66,0.27,-9.60,10.65,-31.95,28.1
2026/04/13 14:57:22.37,IMU,-34.18,-9.77,-999.02,-0.57,-2.21,-3.60,-10.05,11.25,-31.05,28.4
2026/04/13 14:57:22.47,IMU,-49.32,-11.23,-1009.77,0.61,-2.39,0.19,-10.65,9.45,-31.95,28.6
2026/04/13 14:57:22.57,IMU,-30.27,-18.07,-1001.46,-2.00,-0.89,-1.15,-10.50,11.55,-32.85,28.3
2026/04/13 14:57:22.67,IMU,-49.32,-10.74,-992.68,-0.98,-0.79,0.13,-9.30,10.05,-31.35,28.6
2026/04/13 14:57:22.77,IMU,-26.86,-19.53,-1007.81,-1.43,-2.50,-0.57,-9.90,9.45,-31.65,28.6
2026/04/13 14:57:22.87,IMU,-45.41,-9.28,-1000.49,-0.01,-1.50,-4.05,-10.50,10.80,-31.35,28.6
2026/04/13 14:57:22.97,IMU,-35.16,-22.95,-1012.70,-0.05,3.14,0.31,-9.90,9.90,-30.15,28.2
2026/04/13 14:57:23.07,IMU,-51.27,-8.30,-1009.28,-1.34,-0.82,2.21,-10.05,11.55,-30.60,28.6
2026/04/13 14:57:23.17,IMU,-43.46,-10.25,-1002.93,-2.35,-0.47,-2.08,-10.65,10.20,-31.20,28.6
2026/04/13 14:57:23.27,IMU,-37.60,-11.23,-1002.93,-1.88,-0.51,-1.76,-9.75,10.05,-31.35,28.6
2026/04/13 14:57:23.37,IMU,-40.04,-6.84,-1010.74,-1.22,-1.20,-0.50,-9.60,10.20,-31.95,28.4
2026/04/13 14:57:23.47,IMU,-33.20,-14.16,-999.51,-0.77,-0.02,0.54,-10.35,10.65,-31.65,28.5
2026/04/13 14:57:23.57,IMU,-55.66,-14.16,-1009.28,-3.10,2.08,-1.04,-9.15,10.95,-32.40,28.4
2026/04/13 14:57:23.67,IMU,-52.25,-7.81,-995.61,-2.61,0.05,-1.44,-9.30,11.55,-31.35,28.4
2026/04/13 14:57:23.77,IMU,-40.53,-15.14,-997.07,-3.71,-0.74,-0.50,-9.30,10.05,-32.10,28.4
2026/04/13 14:57:23.87,IMU,-37.11,1.95,-1004.39,-1.94,0.49,-0.15,-10.05,10.50,-32.55,28.5
2026/04/13 14:57:23.97,IMU,-36.62,-28.32,-992.19,-0.85,-1.81,-0.34,-10.80,10.50,-32.10,28.3
2026/04/13 14:57:24.08,IMU,-34.67,-10.74,-1002.44,-2.27,-0.20,-0.72,-9.00,10.50,-31.35,28.4
2026/04/13 14:57:24.18,IMU,-42.97,-18.07,-1012.21,-1.73,-1.42,-0.30,-9.00,10.05,-31.80,28.4
2026/04/13 14:57:24.28,IMU,-38.09,-12.21,-1007.32,1.47,-1.56,0.07,-10.05,9.60,-30.60,28.2
2026/04/13 14:57:24.38,IMU,-41.99,-11.23,-1004.39,-0.85,-2.28,-1.12,-9.90,9.90,-30.90,28.3
2026/04/13 14:57:24.48,IMU,-42.48,-22.46,-1000.98,-1.35,-0.27,-4.89,-12.15,10.20,-31.20,28.4
2026/04/13 14:57:24.58,IMU,-49.32,-13.18,-999.02,-0.01,-1.42,0.85,-10.05,12.00,-32.55,28.4
2026/04/13 14:57:24.68,IMU,-46.39,-7.32,-988.77,-0.87,-2.56,0.81,-10.65,10.65,-30.45,28.1
2026/04/13 14:57:24.78,IMU,-36.13,-7.32,-1010.25,-1.70,-0.34,0.45,-9.60,10.95,-31.65,28.6
2026/04/13 14:57:24.88,IMU,-41.50,-3.42,-998.54,-2.08,-2.99,-2.00,-10.05,10.05,-31.35,28.3
2026/04/13 14:57:24.98,IMU,-39.06,-2.93,-1004.39,-1.27,1.05,-0.05,-9.90,11.40,-31.20,28.4
2026/04/13 14:57:25.08,IMU,-46.88,-13.18,-1010.74,-2.65,2.40,-0.34,-9.30,12.45,-31.05,28.4
2026/04/13 14:57:25.18,IMU,-45.41,-13.18,-991.21,-2.55,-1.63,-4.33,-10.05,10.80,-31.35,28.4
2026/04/13 14:57:25.28,IMU,-39.55,-20.02,-999.02,0.45,0.91,1.11,-10.35,10.20,-31.65,28.6
2026/04/13 14:57:25.38,IMU,-42.48,-17.58,-1004.39,-1.65,-2.76,-0.87,-10.50,11.55,-31.35,28.6
2026/04/13 14:57:25.48,IMU,-44.92,-17.09,-990.72,0.11,-3.21,1.02,-10.80,9.60,-32.10,28.6
2026/04/13 14:57:25.58,IMU,-47.36,0.98,-1006.84,0.67,-0.83,-1.34,-10.50,11.25,-31.35,28.4
2026/04/13 14:57:25.68,IMU,-36.13,-23.93,-1014.65,-1.04,-2.27,1.12,-10.65,9.45,-31.95,28.4
2026/04/13 14:57:25.78,IMU,-41.50,-9.77,-1000.00,-1.97,-2.04,-1.76,-10.05,11.55,-31.05,28.7
2026/04/13 14:57:25.88,IMU,-52.25,-14.16,-1005.37,-0.04,-1.19,5.25,-10.35,10.95,-33.45,28.4
2026/04/13 14:57:25.98,IMU,-32.71,-19.04,-998.54,-1.48,-2.27,-1.47,-12.45,8.55,-28.05,28.4
2026/04/13 14:57:26.08,IMU,-39.06,-10.74,-998.54,-0.79,-0.34,-1.15,-10.50,10.05,-31.05,28.4
2026/04/13 14:57:26.18,IMU,-28.81,-1.46,-1006.35,-0.40,-0.15,3.26,-9.60,10.65,-31.20,28.4
2026/04/13 14:57:26.28,IMU,-49.32,-7.81,-1007.32,-0.72,1.82,-2.85,-9.90,10.95,-31.95,28.6
2026/04/13 14:57:26.38,IMU,-48.34,-12.70,-1008.30,0.50,-0.25,-0.82,-10.05,11.25,-32.10,28.4
2026/04/13 14:57:26.48,IMU,-42.48,-5.37,-1002.44,-1.96,-1.37,-1.31,-9.75,11.25,-32.55,28.4
2026/04/13 14:57:26.58,IMU,-45.41,-5.86,-998.05,0.31,-0.65,-0.30,-10.50,11.55,-32.10,28.6
2026/04/13 14:57:26.68,IMU,-47.36,-11.23,-1000.98,-1.31,1.19,0.05,-9.30,10.80,-31.35,28.4
2026/04/13 14:57:26.78,IMU,-52.73,-21.48,-1005.37,-0.60,-2.20,-1.65,-10.65,12.15,-30.90,28.7
2026/04/13 14:57:26.88,IMU,-42.48,-11.23,-995.61,-0.44,-2.04,-2.57,-9.75,10.80,-32.55,28.6
2026/04/13 14:57:26.98,IMU,-40.04,-11.23,-1006.84,-1.41,0.21,0.47,-10.65,9.90,-30.90,28.6
2026/04/13 14:57:27.08,IMU,-35.16,-13.67,-989.75,-0.87,0.84,3.63,-10.80,10.50,-31.05,28.3
2026/04/13 14:57:27.18,IMU,-35.16,-9.28,-992.19,-0.92,-1.25,1.30,-10.05,9.60,-32.10,28.4
2026/04/13 14:57:27.28,IMU,-39.55,-3.42,-1000.00,-4.03,-1.92,-1.76,-10.65,10.95,-31.20,28.2
2026/04/13 14:57:27.38,IMU,-37.60,-17.58,-1006.84,-0.11,1.24,-1.00,-11.25,10.80,-31.35,28.2
2026/04/13 14:57:27.48,IMU,-38.09,-8.79,-1002.44,-2.50,-3.14,-3.19,-9.90,10.65,-31.20,28.6
2026/04/13 14:57:27.59,IMU,-40.53,-10.74,-1011.23,-1.82,0.21,-3.18,-10.05,10.05,-32.10,28.6
2026/04/13 14:57:27.69,IMU,-43.46,-17.58,-992.19,-0.10,1.38,0.96,-9.75,9.60,-31.05,28.6
2026/04/13 14:57:27.79,IMU,-50.29,-3.42,-993.16,0.41,-2.85,1.56,-9.60,11.40,-32.70,28.6
2026/04/13 14:57:27.89,IMU,-34.67,-10.74,-997.56,-0.57,0.39,-1.49,-10.05,10.50,-32.10,28.4
2026/04/13 14:57:28.00,IMU,-46.88,-22.95,-996.58,-0.52,-0.82,1.74,-10.65,10.95,-32.40,28.6
2026/04/13 14:57:28.10,IMU,-55.18,-15.63,-1003.91,-1.60,-0.85,-0.85,-9.90,9.45,-31.65,28.4
2026/04/13 14:57:28.20,IMU,-43.46,-16.60,-1005.37,-1.20,2.31,-0.04,-11.40,10.95,-32.40,28.6
2026/04/13 14:57:28.30,IMU,-39.06,-24.41,-1011.72,-2.58,0.82,0.10,-10.50,10.80,-32.10,28.4
2026/04/13 14:57:28.40,IMU,-30.76,-15.63,-1009.28,-1.11,-1.29,-1.08,-10.80,10.80,-31.80,28.6
2026/04/13 14:57:28.50,IMU,-37.11,-14.65,-992.68,-1.47,1.70,2.25,-9.60,10.65,-31.20,28.6
2026/04/13 14:57:28.60,IMU,-45.41,-11.72,-1011.23,-0.05,1.48,1.76,-9.30,12.00,-31.80,28.4
2026/04/13 14:57:28.70,IMU,-35.64,-14.65,-999.51,-1.85,0.10,-3.39,-10.65,10.20,-31.65,28.6
2026/04/13 14:57:28.80,IMU,-42.48,-10.25,-998.54,-1.32,-4.02,-1.27,-10.05,11.25,-31.35,28.6
2026/04/13 14:57:28.90,IMU,-38.09,-25.88,-1013.18,-1.67,-0.01,2.37,-9.60,10.95,-31.95,28.4
2026/04/13 14:57:29.00,IMU,-43.46,-5.37,-997.07,-2.60,-2.02,1.28,-11.10,11.85,-31.65,28.6
2026/04/13 14:57:29.10,IMU,-33.69,-7.32,-1010.25,-2.13,-1.73,-1.29,-9.30,10.50,-30.60,28.4
2026/04/13 14:57:29.20,IMU,-30.76,-21.97,-988.77,-0.44,-1.56,0.31,-10.05,10.05,-32.55,28.6
2026/04/13 14:57:29.30,IMU,-37.11,-21.48,-1004.39,-0.99,-1.27,-2.52,-10.80,12.45,-31.35,28.5
2026/04/13 14:57:29.40,IMU,-29.30,-3.91,-1002.93,-1.44,-1.65,0.08,-10.50,10.80,-30.30,28.4
2026/04/13 14:57:29.51,IMU,-30.76,-11.72,-999.02,-0.17,-0.91,-0.40,-9.30,10.05,-31.05,28.4
2026/04/13 14:57:29.61,IMU,-37.11,-11.23,-1007.81,-1.37,-3.81,-0.41,-10.65,10.20,-30.45,28.5
2026/04/13 14:57:29.71,IMU,-41.99,-21.97,-992.68,0.47,1.33,0.71,-9.60,10.20,-31.20,28.5
2026/04/13 14:57:29.81,IMU,-36.13,-4.39,-1001.46,-2.53,-3.02,-0.24,-9.30,9.30,-31.80,28.4
2026/04/13 14:57:29.91,IMU,-51.76,-29.79,-987.79,-0.78,-0.34,-2.55,-10.05,11.25,-32.55,28.3
2026/04/13 14:57:30.01,IMU,-46.39,-7.32,-1009.77,-3.61,-2.06,1.14,-9.75,10.05,-32.85,28.3
2026/04/13 14:57:30.11,IMU,-46.39,-7.32,-999.02,-1.47,0.41,1.95,-9.75,8.85,-31.35,28.4
2026/04/13 14:57:30.21,IMU,-41.99,-2.93,-1002.44,-1.63,1.85,-0.24,-10.50,10.05,-31.35,28.6
2026/04/13 14:57:30.31,IMU,-39.55,-7.32,-999.02,-1.44,-1.11,0.25,-9.90,10.65,-31.95,28.7
2026/04/13 14:57:30.41,IMU,-41.02,-3.91,-1006.35,-1.82,-2.00,-6.00,-10.35,10.95,-31.65,28.8
2026/04/13 14:57:30.51,IMU,-41.99,-7.32,-1000.98,-1.84,0.44,0.49,-10.35,11.40,-30.90,28.6
2026/04/13 14:57:30.61,IMU,-52.73,-9.77,-1017.09,-2.00,-1.37,1.37,-10.65,10.20,-30.90,28.5
2026/04/13 14:57:30.71,IMU,-46.39,-11.72,-1000.49,-1.39,0.59,0.02,-10.65,9.90,-31.65,28.2
2026/04/13 14:57:30.81,IMU,-53.71,-1.95,-996.09,-0.29,-1.91,-2.93,-10.05,11.55,-30.60,28.5
2026/04/13 14:57:30.91,IMU,-31.74,-16.11,-1010.25,-0.89,-0.63,-2.84,-9.90,10.20,-31.20,28.6
2026/04/13 14:57:31.01,IMU,-42.48,-4.39,-997.07,-1.42,-2.98,1.34,-9.90,10.95,-31.65,28.7
2026/04/13 14:57:31.11,IMU,-38.57,-3.91,-1009.28,-2.46,-1.71,-1.23,-9.60,11.40,-30.45,28.6
2026/04/13 14:57:31.21,IMU,-32.71,-11.23,-995.12,0.80,-2.06,2.71,-9.30,12.00,-32.55,28.3
2026/04/13 14:57:31.31,IMU,-41.02,-11.23,-993.65,-1.44,0.96,0.22,-10.50,10.50,-30.60,28.4
2026/04/13 14:57:31.41,IMU,-45.90,-16.11,-1005.86,-0.69,-0.69,-0.61,-9.60,10.65,-30.15,28.4
2026/04/13 14:57:31.51,IMU,-40.53,-21.48,-1010.25,-1.14,-3.22,1.50,-10.50,10.05,-32.10,28.6
2026/04/13 14:57:31.61,IMU,-39.55,-2.93,-1021.48,-3.68,1.62,-2.92,-10.35,10.95,-30.45,28.6
2026/04/13 14:57:31.71,IMU,-35.64,-15.63,-1000.98,-1.87,-2.64,0.47,-9.00,10.50,-30.60,28.5
2026/04/13 14:57:31.81,IMU,-37.11,-7.81,-1005.37,-0.08,0.25,-0.14,-10.50,11.25,-31.05,28.6
2026/04/13 14:57:31.91,IMU,-35.16,-4.88,-984.38,-2.48,-1.78,-2.32,-10.65,9.90,-31.65,28.3
2026/04/13 14:57:32.01,IMU,-39.55,-11.23,-1004.88,-1.46,0.73,0.37,-9.60,10.20,-30.15,28.7
2026/04/13 14:57:32.11,IMU,-28.32,-9.77,-1008.79,-1.60,-0.58,0.00,-11.25,10.80,-31.80,28.6
2026/04/13 14:57:32.21,IMU,-37.60,-9.28,-996.58,-0.48,-1.47,-1.90,-9.90,9.45,-31.95,28.4
2026/04/13 14:57:32.31,IMU,-41.99,-12.70,-999.02,0.40,0.31,0.83,-10.65,11.40,-31.20,28.6
2026/04/13 14:57:32.41,IMU,-41.02,-16.60,-985.35,0.46,-2.30,1.21,-9.75,11.55,-31.80,28.7
2026/04/13 14:57:32.51,IMU,-37.60,-20.02,-996.09,0.27,-1.90,0.39,-9.75,10.05,-31.80,28.4
2026/04/13 14:57:32.61,IMU,-45.90,-14.16,-1007.81,-0.89,-0.94,0.21,-10.80,11.55,-31.35,28.6
2026/04/13 14:57:32.71,IMU,-40.53,-5.37,-982.91,-0.71,-1.61,-1.09,-10.80,10.80,-31.05,28.7
2026/04/13 14:57:32.82,IMU,-41.50,-14.16,-991.21,-1.24,0.07,-0.02,-10.05,11.25,-32.10,28.5
2026/04/13 14:57:32.92,IMU,-42.97,-21.00,-1000.00,-3.60,-1.88,-0.26,-9.75,11.55,-31.80,28.6
2026/04/13 14:57:33.02,IMU,-42.97,-22.46,-1006.35,-1.50,-1.24,0.11,-10.05,12.00,-31.35,28.6
